subject	trial	stimulus	response	responsetime
1	1	892	1	2757
1	2	166	1	1977
1	3	610	1	1343
1	4	1002	-1	1404
1	5	355	1	1162
1	6	544	-1	1347
1	7	1340	-1	1198
1	8	676	1	1877
1	9	616	1	1305
1	10	592	-1	2101
1	11	106	1	1118
1	12	281	1	1751
1	13	470	1	877
1	14	1305	1	2835
1	15	588	1	1196
1	16	825	1	3275
1	17	1274	1	1298
1	18	402	1	2315
1	19	463	-1	1815
1	20	1174	-1	2255
1	21	724	1	1073
1	22	94	-1	1820
1	23	5	1	1016
1	24	1247	-1	1698
1	25	537	-1	1683
1	26	324	-1	1159
1	27	479	-1	1217
1	28	808	1	1068
1	29	26	1	1691
1	30	226	-1	1198
1	31	1024	-1	2163
1	32	99	-1	1235
1	33	540	-1	1137
1	34	1266	1	1108
1	35	792	-1	1226
1	36	643	1	853
1	37	279	1	1416
1	38	776	1	1582
1	39	623	-1	2459
1	40	606	1	1306
1	41	116	-1	1350
1	42	728	-1	1497
1	43	1128	-1	1493
1	44	304	-1	2285
1	45	1286	1	1540
1	46	756	-1	1778
1	47	1299	1	966
1	48	757	1	1856
1	49	200	-1	1586
1	50	1077	-1	1563
1	51	891	1	1455
1	52	555	1	1800
1	53	313	-1	1124
1	54	763	-1	3217
1	55	278	-1	2110
1	56	103	-1	1374
1	57	149	1	1381
1	58	850	-1	1566
1	59	1151	-1	1280
1	60	1169	-1	1345
1	61	1014	1	1210
1	62	911	1	1128
1	63	930	-1	1651
1	64	1035	-1	1506
1	65	1254	-1	1670
1	66	69	-1	1328
1	67	1364	-1	1512
1	68	1310	-1	1338
1	69	311	-1	1700
1	70	1390	1	1127
1	71	190	1	1452
1	72	921	1	1197
1	73	183	1	1334
1	74	546	1	1563
1	75	56	1	1059
1	76	848	1	1739
1	77	475	-1	1211
1	78	432	-1	1597
1	79	1346	1	1284
1	80	1183	-1	2505
1	81	902	-1	2414
1	82	533	-1	3510
1	83	457	-1	2872
1	84	500	-1	1546
1	85	802	-1	1325
1	86	944	-1	2016
1	87	1069	1	1865
1	88	385	1	1016
1	89	736	1	1791
1	90	751	-1	1121
1	91	761	1	1223
1	92	154	-1	1265
1	93	323	-1	1238
1	94	269	-1	1183
1	95	460	-1	1219
1	96	977	-1	1130
1	97	274	1	1144
1	98	251	-1	1199
1	99	746	-1	1359
1	100	143	1	1031
1	101	1017	1	1824
1	102	41	1	1124
1	103	935	1	1166
1	104	494	1	1286
1	105	782	-1	1266
1	106	769	-1	1231
1	107	929	-1	1835
1	108	1248	1	1063
1	109	787	1	973
1	110	799	-1	1082
1	111	879	1	1454
1	112	1009	1	1671
1	113	526	1	1037
1	114	1054	1	1422
1	115	480	-1	964
1	116	626	-1	1338
1	117	1216	1	1227
1	118	349	1	1045
1	119	936	1	1086
1	120	48	-1	1472
1	121	1315	1	1624
1	122	482	1	1591
1	123	867	1	1770
1	124	554	-1	1741
1	125	276	-1	1309
1	126	779	1	1543
1	127	535	1	1573
1	128	1265	-1	1092
1	129	1199	1	1325
1	130	225	-1	1417
1	131	148	1	1301
1	132	843	1	1339
1	133	187	-1	1076
1	134	748	1	1469
1	135	992	-1	1277
1	136	1036	-1	1407
1	137	388	-1	1085
1	138	314	1	1606
1	139	512	-1	924
1	140	125	-1	1440
1	141	817	1	1195
1	142	335	1	1296
1	143	362	1	1475
1	144	1208	-1	1452
1	145	1064	-1	1694
1	146	35	-1	1177
1	147	301	-1	1251
1	148	121	-1	1019
1	149	2	1	1017
1	150	330	1	1650
1	151	1341	-1	1348
1	152	84	1	1421
1	153	527	-1	1055
1	154	396	-1	1434
1	155	1235	-1	1278
1	156	445	-1	1175
1	157	488	-1	1679
1	158	842	1	1255
1	159	418	1	1054
1	160	120	1	1205
1	161	521	1	1914
1	162	874	-1	1696
1	163	1362	-1	1479
1	164	897	1	1387
1	165	1092	1	1009
1	166	220	-1	1282
1	167	438	-1	1303
1	168	345	1	929
1	169	1184	1	1153
1	170	684	1	857
1	171	256	-1	1126
1	172	1280	1	1427
1	173	841	-1	1118
1	174	452	1	1300
1	175	1149	-1	1169
1	176	1383	1	1272
1	177	299	1	1318
1	178	987	1	1505
1	179	601	-1	1517
1	180	993	1	1889
1	181	906	-1	1081
1	182	830	1	1106
1	183	631	-1	1052
1	184	222	1	2013
1	185	966	1	1637
1	186	793	-1	1831
1	187	1038	-1	1102
1	188	1178	-1	1327
1	189	92	-1	1208
1	190	1330	-1	1561
1	191	1059	1	1219
1	192	284	1	1341
1	193	344	1	1137
1	194	1207	1	993
1	195	956	1	1478
1	196	961	1	1234
1	197	1157	-1	1598
1	198	691	1	1187
1	199	1049	1	1250
1	200	140	1	1679
1	201	731	1	1909
1	202	1031	-1	1384
1	203	327	1	1440
1	204	839	-1	1228
1	205	1177	-1	1089
1	206	184	1	1140
1	207	624	-1	1104
1	208	373	-1	1076
1	209	1025	-1	1271
1	210	100	-1	1294
1	211	206	1	1562
1	212	823	1	894
1	213	801	-1	1354
1	214	888	1	1137
1	215	686	1	1122
1	216	338	-1	1459
1	217	467	1	1139
1	218	1118	-1	1126
1	219	620	1	1440
1	220	885	-1	1650
1	221	3	1	1371
1	222	560	1	1214
1	223	1091	1	1343
1	224	1385	-1	1047
1	225	939	1	1039
1	226	66	-1	1461
1	227	1347	1	1128
1	228	509	1	1717
1	229	604	-1	1746
1	230	37	1	1444
1	231	331	1	1573
1	232	422	-1	1181
1	233	282	1	2175
1	234	567	-1	1450
1	235	1153	1	1490
1	236	54	1	1753
1	237	945	1	1628
1	238	224	-1	2126
1	239	153	-1	1753
1	240	1257	1	921
1	241	904	1	1450
1	242	1066	-1	1672
1	243	962	-1	2023
1	244	1316	1	1792
1	245	13	1	1725
1	246	238	1	1606
1	247	633	1	1948
1	248	51	1	1824
1	249	1311	1	1270
1	250	997	-1	1166
1	251	598	-1	1476
1	252	621	1	1294
1	253	1143	1	1441
1	254	108	1	1540
1	255	195	1	1813
1	256	648	-1	1090
1	257	1399	1	1037
1	258	1167	-1	1793
1	259	777	1	1879
1	260	932	-1	1058
1	261	754	1	1069
1	262	322	1	1611
1	263	348	1	1269
1	264	1238	-1	1207
1	265	31	1	1270
1	266	395	-1	1241
1	267	17	1	2854
1	268	871	1	2627
1	269	797	1	3061
1	270	1210	1	3311
1	271	1353	1	3567
1	272	61	-1	1130
1	273	1126	1	1446
1	274	1365	-1	2190
1	275	832	-1	1110
1	276	280	1	1359
1	277	1134	1	1584
1	278	413	-1	1747
1	279	389	-1	1884
1	280	907	1	1086
1	281	1131	1	1175
1	282	712	1	2113
1	283	328	-1	1870
1	284	639	1	2287
1	285	1045	1	1587
1	286	253	1	2490
1	287	1168	-1	2313
1	288	1004	-1	1856
1	289	698	1	1105
1	290	1271	1	1469
1	291	806	1	1194
1	292	780	-1	1045
1	293	1080	1	1465
1	294	883	1	1403
1	295	1291	1	1453
1	296	955	1	1341
1	297	371	-1	1403
1	298	980	-1	1217
1	299	844	-1	965
1	300	1256	1	968
1	301	637	-1	2044
1	302	57	1	928
1	303	796	-1	929
1	304	316	1	1095
1	305	1312	1	1360
1	306	940	-1	1381
1	307	1303	-1	1317
1	308	783	-1	1162
1	309	1267	1	1390
1	310	1393	1	1543
1	311	397	1	1848
1	312	562	-1	1340
1	313	1195	1	2074
1	314	24	-1	1928
1	315	1063	1	1422
1	316	1338	-1	1937
1	317	926	-1	1563
1	318	1022	-1	1636
1	319	366	1	971
1	320	146	-1	1657
1	321	768	-1	1403
1	322	759	1	1120
1	323	1047	-1	3882
1	324	101	-1	1261
1	325	1166	-1	2108
1	326	239	-1	1203
1	327	83	1	1349
1	328	561	1	1328
1	329	838	-1	2210
1	330	481	-1	1076
1	331	1019	-1	1085
1	332	577	1	1741
1	333	1065	-1	1859
1	334	819	1	1121
1	335	642	-1	2253
1	336	1219	1	1268
1	337	800	1	1330
1	338	167	1	1035
1	339	910	1	1147
1	340	925	-1	1501
1	341	1213	1	1402
1	342	163	1	1270
1	343	30	1	1403
1	344	1384	1	1478
1	345	516	-1	1101
1	346	737	-1	1655
1	347	609	1	2220
1	348	735	-1	1547
1	349	1103	1	2233
1	350	497	-1	2483
1	351	566	-1	1637
1	352	661	1	2019
1	353	1382	-1	1319
1	354	580	1	2836
1	355	660	1	1153
1	356	1211	-1	1194
1	357	379	-1	1390
1	358	827	1	936
1	359	317	-1	1158
1	360	75	1	1227
1	361	52	-1	1468
1	362	332	1	1637
1	363	111	1	4073
1	364	347	-1	1871
1	365	552	-1	3000
1	366	380	-1	3354
1	367	730	-1	2650
1	368	1187	-1	1569
1	369	1230	-1	1342
1	370	1258	1	1332
1	371	1356	1	1094
1	372	502	-1	1222
1	373	713	1	1871
1	374	954	-1	2023
1	375	1145	-1	1503
1	376	811	1	1082
1	377	1135	-1	1444
1	378	285	1	995
1	379	949	-1	1039
1	380	689	-1	1810
1	381	1232	1	1774
1	382	958	-1	805
1	383	840	1	850
1	384	1334	-1	900
1	385	268	-1	1314
1	386	1283	-1	822
1	387	399	-1	968
1	388	673	1	2179
1	389	440	1	1563
1	390	1252	1	1652
1	391	510	-1	1349
1	392	663	-1	1561
1	393	42	1	1067
1	394	1227	1	1950
1	395	1198	1	1555
1	396	1055	1	1358
1	397	1212	-1	1444
1	398	1284	1	1375
1	399	967	-1	1112
1	400	974	-1	1680
1	401	272	1	2176
1	402	931	-1	1070
1	403	71	1	1218
1	404	33	1	1066
1	405	666	1	1433
1	406	1294	-1	1264
1	407	1228	-1	1904
1	408	657	-1	1687
1	409	1041	1	2261
1	410	913	1	2248
1	411	581	-1	1346
1	412	1282	1	1103
1	413	394	-1	1399
1	414	12	-1	1264
1	415	398	1	1401
1	416	591	1	2845
1	417	791	1	1240
1	418	212	1	921
1	419	1276	1	1103
1	420	934	1	1576
1	421	1242	1	1755
1	422	947	1	1809
1	423	681	1	1337
1	424	436	1	1020
1	425	641	1	1060
1	426	740	1	1516
1	427	1358	-1	1357
1	428	1051	-1	1759
1	429	346	-1	1310
1	430	473	1	1101
1	431	472	1	1109
1	432	1136	-1	1449
1	433	171	-1	1048
1	434	1159	1	1176
1	435	594	1	2945
1	436	893	-1	1941
1	437	574	1	943
1	438	1028	-1	1302
1	439	454	1	1138
1	440	350	-1	1470
1	441	1221	-1	1566
1	442	855	1	1169
1	443	201	1	1166
1	444	1175	-1	1395
1	445	386	1	1119
1	446	670	-1	991
1	447	798	1	1895
1	448	613	-1	1303
1	449	738	1	1030
1	450	870	1	1223
1	451	635	1	1913
1	452	1231	-1	1191
1	453	775	1	1518
1	454	325	-1	1286
1	455	946	1	1522
1	456	513	1	1528
1	457	430	-1	1145
1	458	1142	-1	1678
1	459	1297	1	1244
1	460	375	1	1630
1	461	1220	1	1359
1	462	1052	-1	1536
1	463	119	1	1945
1	464	847	-1	2127
1	465	1058	1	1189
1	466	197	1	1134
1	467	571	1	1350
1	468	138	-1	1356
1	469	104	1	1007
1	470	881	1	1272
1	471	378	1	1230
1	472	948	1	1260
1	473	229	1	1305
1	474	444	-1	1345
1	475	785	-1	1410
1	476	969	-1	1698
1	477	833	1	1231
1	478	340	1	1454
1	479	1185	-1	1887
1	480	114	-1	1793
1	481	82	1	1596
1	482	1	-1	1119
1	483	976	1	1159
1	484	181	-1	1827
1	485	1084	1	1465
1	486	360	-1	1533
1	487	741	-1	2715
1	488	213	1	1430
1	489	466	1	2435
1	490	523	-1	1228
1	491	668	1	1069
1	492	231	-1	1501
1	493	446	1	1300
1	494	813	-1	1400
1	495	216	-1	1421
1	496	1323	1	1770
1	497	358	-1	1280
1	498	1034	-1	2906
1	499	1013	-1	1677
1	500	1262	-1	1642
1	501	876	1	1858
1	502	557	-1	1330
1	503	528	-1	1923
1	504	721	-1	1443
1	505	329	-1	1733
1	506	640	-1	1200
1	507	866	-1	1820
1	508	1158	1	1232
1	509	283	1	1475
1	510	290	1	1426
1	511	630	1	2062
1	512	1081	1	1948
1	513	1129	1	2546
1	514	953	1	2300
1	515	943	1	1636
1	516	456	1	1790
1	517	321	1	3187
1	518	353	-1	1790
1	519	107	-1	1295
1	520	390	-1	1691
1	521	16	-1	1232
1	522	951	1	1613
1	523	337	-1	1037
1	524	586	1	1398
1	525	175	-1	1270
1	526	1229	1	1365
1	527	262	-1	1325
1	528	722	1	2535
1	529	204	1	3782
1	530	374	1	2532
1	531	277	1	1018
1	532	1380	1	3176
1	533	1319	-1	2463
1	534	1196	-1	1796
1	535	1253	1	1497
1	536	236	-1	1736
1	537	95	-1	2476
1	538	155	-1	1545
1	539	894	1	2093
1	540	273	1	1357
1	541	439	1	1825
1	542	693	-1	3424
1	543	339	-1	1674
1	544	644	-1	2139
1	545	596	-1	2353
1	546	302	1	1745
1	547	180	1	2148
1	548	315	-1	1096
1	549	182	1	1485
1	550	1147	1	1515
1	551	189	-1	1691
1	552	781	1	1113
1	553	326	1	1425
1	554	1192	1	1458
1	555	1123	1	1564
1	556	309	1	1623
1	557	228	1	1173
1	558	908	-1	1143
1	559	260	1	1312
1	560	853	1	1766
1	561	710	-1	1446
1	562	983	1	1791
1	563	507	-1	1515
1	564	486	-1	1698
1	565	1107	1	1870
1	566	1012	1	2020
1	567	1318	1	1861
1	568	450	1	2410
1	569	193	-1	1664
1	570	1127	1	1897
1	571	659	-1	1214
1	572	597	-1	1505
1	573	1273	1	1212
1	574	1138	1	1552
1	575	749	1	1513
1	576	807	1	2317
1	577	435	1	1961
1	578	886	1	4119
1	579	1226	1	1334
1	580	343	1	1874
1	581	582	1	1085
1	582	984	1	1092
1	583	774	1	1426
1	584	257	-1	1264
1	585	834	1	1606
1	586	1204	-1	1860
1	587	383	1	1402
1	588	720	1	1552
1	589	1030	1	1598
1	590	654	1	2002
1	591	982	-1	1886
1	592	515	1	1790
1	593	822	1	1517
1	594	1139	-1	1484
1	595	1321	-1	1654
1	596	1018	-1	1393
1	597	857	-1	1712
1	598	627	1	1320
1	599	296	-1	1349
1	600	918	1	1631
1	601	1130	1	2071
1	602	973	1	1475
1	603	1087	1	7838
1	604	1379	-1	1392
1	605	534	-1	1261
1	606	203	1	1549
1	607	900	-1	1068
1	608	27	-1	1206
1	609	449	-1	1033
1	610	745	1	1750
1	611	21	-1	2070
1	612	861	1	958
1	613	790	-1	1251
1	614	678	-1	1354
1	615	1016	-1	1277
1	616	431	1	2014
1	617	703	1	1396
1	618	28	-1	1742
1	619	578	1	1173
1	620	600	-1	1545
1	621	715	-1	1457
1	622	1355	-1	1766
1	623	74	-1	2019
1	624	247	1	1075
1	625	65	-1	1907
1	626	1001	1	1141
1	627	753	-1	1983
1	628	474	-1	1259
1	629	1072	1	977
1	630	471	-1	1775
1	631	1120	-1	2586
1	632	1154	-1	1674
1	633	59	-1	1857
1	634	941	-1	1493
1	635	267	1	1380
1	636	1125	-1	1493
1	637	938	1	1261
1	638	558	1	1197
1	639	564	1	1429
1	640	717	-1	1030
1	641	520	-1	1455
1	642	306	-1	1694
1	643	570	1	1654
1	644	485	1	2226
1	645	1322	1	2345
1	646	901	1	1039
1	647	1181	1	827
1	648	880	-1	1044
1	649	382	1	1192
1	650	270	-1	1691
1	651	905	1	1485
1	652	539	-1	1168
1	653	227	-1	1933
1	654	214	-1	1183
1	655	1096	-1	1260
1	656	308	-1	1135
1	657	319	1	1336
1	658	405	-1	1339
1	659	1116	-1	1408
1	660	608	-1	1450
1	661	1161	-1	1069
1	662	1396	1	1245
1	663	11	-1	1034
1	664	426	-1	1462
1	665	1146	-1	1376
1	666	68	-1	1719
1	667	1005	-1	1998
1	668	252	1	1769
1	669	1296	-1	1105
1	670	584	-1	1248
1	671	809	1	1222
1	672	524	-1	1026
1	673	1281	1	1131
1	674	261	1	2163
1	675	43	-1	1163
1	676	634	1	961
1	677	169	1	1561
1	678	919	1	1611
1	679	899	1	1624
1	680	462	-1	1714
1	681	810	1	1226
1	682	1333	-1	1057
1	683	129	1	1152
1	684	903	1	977
1	685	81	1	1244
1	686	1000	-1	1691
1	687	1203	1	1182
1	688	575	1	1083
1	689	429	-1	1078
1	690	872	1	985
1	691	73	-1	1097
1	692	889	1	1339
1	693	854	1	1097
1	694	38	1	1174
1	695	694	1	1228
1	696	576	-1	1280
1	697	1395	1	1084
1	698	1298	1	1270
1	699	369	1	939
1	700	244	-1	1543
1	701	357	-1	2287
1	702	1388	1	1019
1	703	192	-1	1122
1	704	549	1	998
1	705	1324	-1	1007
1	706	147	1	1301
1	707	1141	-1	1320
1	708	89	1	1137
1	709	1007	1	929
1	710	177	1	1212
1	711	914	-1	1120
1	712	98	1	927
1	713	530	1	1417
1	714	1236	-1	891
1	715	599	-1	1388
1	716	156	1	1279
1	717	572	-1	2051
1	718	1117	1	1286
1	719	593	1	1498
1	720	40	-1	1365
1	721	545	-1	2002
1	722	198	-1	1478
1	723	1172	-1	1554
1	724	1339	-1	1538
1	725	406	-1	1531
1	726	786	1	871
1	727	1133	-1	1693
1	728	658	-1	1014
1	729	915	-1	1611
1	730	334	1	1957
1	731	384	1	1108
1	732	679	-1	1307
1	733	364	1	1252
1	734	784	1	1162
1	735	733	-1	1225
1	736	78	-1	1513
1	737	483	1	1426
1	738	1144	-1	1522
1	739	211	-1	1326
1	740	70	1	1031
1	741	1343	1	1061
1	742	682	-1	945
1	743	461	1	1010
1	744	178	-1	1092
1	745	465	1	961
1	746	124	1	1356
1	747	714	1	1264
1	748	972	-1	1521
1	749	1093	1	1547
1	750	1325	-1	1455
1	751	1218	-1	2236
1	752	505	1	1078
1	753	750	-1	1170
1	754	77	1	961
1	755	556	1	1862
1	756	134	1	1411
1	757	829	1	1524
1	758	1285	1	1437
1	759	700	-1	1388
1	760	805	1	1291
1	761	1239	-1	1046
1	762	1371	1	1263
1	763	491	1	1074
1	764	1140	1	999
1	765	519	1	1211
1	766	15	1	1399
1	767	249	-1	1074
1	768	448	1	1019
1	769	307	1	1258
1	770	14	-1	1185
1	771	458	1	1374
1	772	543	1	1636
1	773	846	-1	1780
1	774	933	-1	1103
1	775	672	-1	1548
1	776	1020	1	1199
1	777	117	1	2066
1	778	1337	1	2186
1	779	744	-1	1498
1	780	669	1	1406
1	781	690	-1	1671
1	782	656	-1	2054
1	783	295	-1	1738
1	784	622	1	1237
1	785	496	-1	1345
1	786	135	1	1330
1	787	1152	-1	1174
1	788	743	-1	1330
1	789	688	1	1571
1	790	1003	1	1089
1	791	1249	-1	1346
1	792	1044	1	1136
1	793	548	1	1232
1	794	162	1	1089
1	795	25	-1	1150
1	796	924	1	1112
1	797	415	-1	1109
1	798	139	1	1952
1	799	869	1	1437
1	800	816	1	1232
1	801	476	1	1981
1	802	922	-1	1305
1	803	185	1	1052
1	804	1377	1	1224
1	805	553	1	1297
1	806	1114	1	1554
1	807	1113	1	2925
1	808	495	1	1591
1	809	762	-1	1322
1	810	1037	-1	2277
1	811	868	1	895
1	812	652	-1	895
1	813	692	1	1328
1	814	789	-1	812
1	815	965	-1	3872
1	816	1354	1	1466
1	817	243	-1	972
1	818	615	1	1355
1	819	55	-1	976
1	820	1352	1	1093
1	821	144	-1	959
1	822	522	1	1474
1	823	1053	1	1521
1	824	1160	-1	1133
1	825	115	1	1297
1	826	590	1	1083
1	827	595	-1	1006
1	828	912	1	985
1	829	1306	1	1194
1	830	477	-1	1461
1	831	1302	1	1682
1	832	1115	1	801
1	833	391	-1	1212
1	834	1040	1	1165
1	835	492	-1	1111
1	836	628	1	1555
1	837	1122	-1	1492
1	838	442	-1	1691
1	839	680	1	913
1	840	127	1	1105
1	841	499	-1	1154
1	842	1237	1	1691
1	843	957	1	1077
1	844	687	-1	1394
1	845	896	1	948
1	846	531	-1	1028
1	847	651	1	1730
1	848	370	1	2347
1	849	62	1	1988
1	850	1290	-1	956
1	851	991	1	1588
1	852	875	-1	1029
1	853	986	-1	1533
1	854	232	-1	1420
1	855	287	1	1318
1	856	1021	1	1107
1	857	814	-1	3456
1	858	1102	-1	1632
1	859	218	1	1097
1	860	85	1	2581
1	861	675	-1	1611
1	862	437	1	1108
1	863	655	-1	1236
1	864	412	-1	1722
1	865	862	1	1074
1	866	219	1	963
1	867	123	1	1176
1	868	1165	-1	2057
1	869	250	1	1127
1	870	102	1	1551
1	871	1189	1	1154
1	872	1179	-1	1123
1	873	258	1	1289
1	874	587	1	1237
1	875	1029	-1	1082
1	876	196	1	1039
1	877	1233	1	1554
1	878	1317	-1	1268
1	879	1106	1	1015
1	880	237	-1	1215
1	881	403	-1	1659
1	882	1026	-1	1339
1	883	837	-1	1575
1	884	529	-1	1094
1	885	1086	1	1304
1	886	664	1	936
1	887	732	1	957
1	888	221	1	1406
1	889	300	1	1288
1	890	1224	1	1175
1	891	29	1	1137
1	892	165	1	843
1	893	209	-1	1217
1	894	1078	1	963
1	895	1223	-1	1249
1	896	726	-1	1080
1	897	359	-1	1197
1	898	1090	-1	1439
1	899	1222	-1	1590
1	900	1400	1	930
1	901	818	1	1696
1	902	1061	1	1082
1	903	1085	1	1325
1	904	137	-1	1393
1	905	503	1	1333
1	906	157	-1	1126
1	907	128	1	1521
1	908	79	-1	1050
1	909	164	1	1021
1	910	1201	1	1351
1	911	1351	1	1372
1	912	1215	1	1073
1	913	1244	-1	1072
1	914	46	-1	1722
1	915	393	1	1103
1	916	293	1	1291
1	917	407	1	1323
1	918	1164	1	1337
1	919	619	1	284
1	920	603	-1	1893
1	921	864	1	1255
1	922	377	1	1623
1	923	34	1	2108
1	924	1076	-1	1321
1	925	1110	1	1193
1	926	1108	1	1817
1	927	53	1	1555
1	928	191	-1	3078
1	929	1342	1	1103
1	930	856	-1	1683
1	931	356	1	1442
1	932	1374	-1	1219
1	933	459	-1	1474
1	934	1246	1	1079
1	935	1209	-1	1157
1	936	1156	-1	1274
1	937	420	-1	1203
1	938	1006	1	1215
1	939	760	1	1495
1	940	392	1	1953
1	941	1217	1	1623
1	942	233	1	1860
1	943	1329	-1	1327
1	944	1099	1	1098
1	945	298	1	1335
1	946	565	-1	1176
1	947	1361	1	1005
1	948	1112	1	1553
1	949	1293	1	2494
1	950	702	1	1243
1	951	767	1	1738
1	952	1032	-1	1347
1	953	1050	-1	1388
1	954	1344	1	1449
1	955	882	-1	1123
1	956	1279	1	1643
1	957	1060	1	1799
1	958	920	-1	1525
1	959	1320	-1	1115
1	960	542	-1	1749
1	961	1111	1	1965
1	962	671	-1	1135
1	963	455	1	1065
1	964	990	-1	1339
1	965	199	-1	1357
1	966	234	1	1598
1	967	168	1	2126
1	968	788	-1	1058
1	969	67	-1	1538
1	970	887	-1	1144
1	971	44	1	965
1	972	742	-1	1141
1	973	1313	1	1046
1	974	1331	-1	1191
1	975	1171	1	1265
1	976	32	-1	1094
1	977	989	1	1047
1	978	815	-1	994
1	979	367	-1	1088
1	980	1105	1	1340
1	981	9	-1	951
1	982	964	1	943
1	983	1043	-1	1211
1	984	133	1	1746
1	985	1360	1	1512
1	986	1394	-1	1642
1	987	387	1	1127
1	988	286	1	1151
1	989	1089	-1	1282
1	990	709	1	1425
1	991	1100	-1	1103
1	992	112	-1	1490
1	993	1368	-1	1622
1	994	770	1	1040
1	995	207	1	1061
1	996	1332	-1	1156
1	997	151	1	975
1	998	1137	-1	1193
1	999	1326	1	892
1	1000	113	1	1064
1	1001	361	-1	2055
1	1002	1260	-1	1127
1	1003	205	-1	1154
1	1004	1269	1	1256
1	1005	952	-1	2170
1	1006	47	1	1453
1	1007	1200	-1	1289
1	1008	433	1	1156
1	1009	653	1	1416
1	1010	1397	-1	1408
1	1011	683	-1	1039
1	1012	701	1	878
1	1013	23	-1	1142
1	1014	541	1	842
1	1015	76	1	1679
1	1016	188	1	1441
1	1017	937	1	1751
1	1018	365	-1	1007
1	1019	333	1	2032
1	1020	194	1	1346
1	1021	1378	1	1154
1	1022	1350	-1	1017
1	1023	518	1	1503
1	1024	1186	-1	1152
1	1025	289	1	1250
1	1026	372	1	1122
1	1027	142	1	1500
1	1028	501	-1	1198
1	1029	704	1	1950
1	1030	1225	-1	1547
1	1031	259	1	1330
1	1032	878	-1	1107
1	1033	1259	1	1396
1	1034	1287	1	1182
1	1035	877	-1	1261
1	1036	87	1	1444
1	1037	22	1	1373
1	1038	19	1	1550
1	1039	1241	-1	1149
1	1040	1173	1	1268
1	1041	1067	1	1925
1	1042	1289	-1	1379
1	1043	1264	1	1058
1	1044	772	1	1218
1	1045	409	-1	1408
1	1046	739	1	1117
1	1047	579	-1	1526
1	1048	1272	1	1428
1	1049	1391	-1	1346
1	1050	1079	-1	1642
1	1051	942	1	1122
1	1052	1033	1	1459
1	1053	1109	1	1319
1	1054	1046	-1	1606
1	1055	563	1	1178
1	1056	569	-1	1172
1	1057	695	1	1202
1	1058	978	-1	1376
1	1059	1073	1	965
1	1060	1387	-1	1018
1	1061	873	-1	1255
1	1062	612	-1	1253
1	1063	217	1	1262
1	1064	1202	1	1604
1	1065	1363	-1	1032
1	1066	417	1	1325
1	1067	504	-1	2591
1	1068	1292	1	1502
1	1069	729	1	2086
1	1070	794	1	948
1	1071	716	1	1318
1	1072	508	-1	919
1	1073	170	1	1422
1	1074	727	1	982
1	1075	1314	-1	947
1	1076	963	1	1092
1	1077	636	1	1756
1	1078	1348	1	1151
1	1079	275	-1	963
1	1080	246	-1	1436
1	1081	1357	1	875
1	1082	122	-1	1060
1	1083	629	1	1039
1	1084	341	-1	1227
1	1085	1295	1	1438
1	1086	685	1	1153
1	1087	928	-1	1055
1	1088	1373	1	1000
1	1089	863	-1	1159
1	1090	674	1	1302
1	1091	434	1	1583
1	1092	72	-1	1017
1	1093	589	1	1700
1	1094	611	1	1264
1	1095	414	1	984
1	1096	917	-1	1010
1	1097	511	1	889
1	1098	1309	-1	1027
1	1099	1095	-1	1134
1	1100	996	1	896
1	1101	1097	-1	1765
1	1102	45	1	982
1	1103	404	-1	960
1	1104	583	-1	999
1	1105	1083	1	1297
1	1106	88	-1	1017
1	1107	318	-1	1156
1	1108	376	-1	1349
1	1109	223	1	1152
1	1110	650	-1	1088
1	1111	7	1	1271
1	1112	1042	-1	933
1	1113	895	1	961
1	1114	1245	-1	950
1	1115	4	1	987
1	1116	202	-1	855
1	1117	8	-1	1396
1	1118	968	-1	971
1	1119	803	-1	1382
1	1120	971	-1	982
1	1121	90	1	1359
1	1122	1349	-1	912
1	1123	464	1	988
1	1124	1308	-1	1037
1	1125	230	-1	1034
1	1126	428	1	1749
1	1127	585	1	1230
1	1128	179	1	1274
1	1129	443	1	1114
1	1130	828	-1	1024
1	1131	354	1	1008
1	1132	859	1	295
1	1133	58	1	1631
1	1134	662	1	919
1	1135	241	1	840
1	1136	1250	1	1106
1	1137	97	-1	987
1	1138	1124	-1	1302
1	1139	424	1	1024
1	1140	310	1	1290
1	1141	1261	1	1087
1	1142	1082	-1	2004
1	1143	696	1	1073
1	1144	707	1	1544
1	1145	478	-1	2004
1	1146	778	-1	1439
1	1147	126	1	1767
1	1148	1194	1	1262
1	1149	1251	1	988
1	1150	363	1	1631
1	1151	291	1	1328
1	1152	532	-1	1066
1	1153	64	1	2375
1	1154	890	1	1139
1	1155	468	1	1260
1	1156	551	1	1765
1	1157	547	-1	1136
1	1158	208	-1	1330
1	1159	607	-1	1302
1	1160	1278	-1	1074
1	1161	747	1	1023
1	1162	667	-1	1205
1	1163	1062	-1	1441
1	1164	39	1	1149
1	1165	1176	1	1165
1	1166	1345	-1	1389
1	1167	1088	-1	1436
1	1168	1372	1	1029
1	1169	91	1	1284
1	1170	172	1	1085
1	1171	265	1	1330
1	1172	988	1	1125
1	1173	1270	1	970
1	1174	1027	-1	847
1	1175	559	1	1041
1	1176	835	1	809
1	1177	898	1	1131
1	1178	159	-1	971
1	1179	1074	1	976
1	1180	150	-1	1102
1	1181	1197	1	1022
1	1182	1359	-1	2440
1	1183	517	-1	1378
1	1184	1121	-1	3479
1	1185	245	1	970
1	1186	453	-1	1192
1	1187	1389	-1	2562
1	1188	718	-1	1547
1	1189	602	-1	1295
1	1190	1336	1	697
1	1191	1132	-1	2813
1	1192	130	1	1380
1	1193	421	1	1946
1	1194	342	-1	1055
1	1195	1366	1	1721
1	1196	297	-1	888
1	1197	60	-1	1293
1	1198	118	1	1386
1	1199	1188	-1	1250
1	1200	821	1	1851
1	1201	1075	1	2621
1	1202	469	-1	1117
1	1203	1381	1	1031
1	1204	132	1	1166
1	1205	923	-1	1327
1	1206	305	1	917
1	1207	242	-1	903
1	1208	568	1	906
1	1209	1398	-1	1027
1	1210	235	1	927
1	1211	1104	-1	937
1	1212	1190	1	1042
1	1213	1191	-1	962
1	1214	994	1	866
1	1215	985	-1	772
1	1216	950	1	1011
1	1217	160	-1	1254
1	1218	400	1	882
1	1219	410	-1	1682
1	1220	1010	-1	1701
1	1221	1214	-1	1490
1	1222	677	-1	1697
1	1223	368	-1	1884
1	1224	210	1	901
1	1225	1094	1	1324
1	1226	1048	1	1120
1	1227	425	1	1023
1	1228	266	1	976
1	1229	292	1	1038
1	1230	538	1	1387
1	1231	758	1	992
1	1232	136	1	1316
1	1233	110	1	1103
1	1234	1148	1	1164
1	1235	1386	1	1204
1	1236	493	1	1074
1	1237	489	-1	996
1	1238	647	1	1407
1	1239	1162	1	1449
1	1240	697	-1	1269
1	1241	264	1	1202
1	1242	771	1	997
1	1243	158	1	870
1	1244	351	1	942
1	1245	263	1	977
1	1246	734	-1	926
1	1247	573	-1	1214
1	1248	665	1	987
1	1249	705	1	773
1	1250	618	-1	999
1	1251	312	-1	1424
1	1252	401	1	1137
1	1253	820	-1	1366
1	1254	699	-1	1594
1	1255	1070	1	1270
1	1256	18	1	1285
1	1257	1150	-1	1414
1	1258	851	1	914
1	1259	63	-1	1277
1	1260	109	1	1161
1	1261	755	-1	1016
1	1262	927	1	870
1	1263	1275	-1	990
1	1264	381	1	809
1	1265	1057	1	1124
1	1266	86	1	744
1	1267	1307	1	1172
1	1268	960	1	1385
1	1269	826	-1	982
1	1270	427	1	1542
1	1271	176	1	908
1	1272	916	-1	1290
1	1273	1369	1	1183
1	1274	96	-1	1167
1	1275	255	1	1189
1	1276	1327	1	929
1	1277	865	1	959
1	1278	80	1	1592
1	1279	498	1	1359
1	1280	1370	1	1388
1	1281	999	1	1290
1	1282	1243	1	1033
1	1283	979	1	1028
1	1284	36	1	1240
1	1285	1163	1	1016
1	1286	1182	1	1692
1	1287	49	-1	1082
1	1288	1240	1	1035
1	1289	514	1	1183
1	1290	1376	1	1295
1	1291	1234	1	1127
1	1292	248	-1	1346
1	1293	1119	1	1445
1	1294	1193	1	1007
1	1295	1015	-1	1057
1	1296	1375	1	1173
1	1297	1328	1	1230
1	1298	536	-1	1057
1	1299	6	1	890
1	1300	632	-1	1191
1	1301	975	1	1595
1	1302	812	-1	917
1	1303	1304	1	1057
1	1304	506	1	1259
1	1305	995	1	1039
1	1306	998	-1	1095
1	1307	1367	1	1251
1	1308	970	1	898
1	1309	141	1	1012
1	1310	649	-1	913
1	1311	352	1	986
1	1312	1170	1	1204
1	1313	484	1	938
1	1314	849	-1	1662
1	1315	416	1	1196
1	1316	804	-1	944
1	1317	614	1	956
1	1318	1206	-1	914
1	1319	1098	-1	1262
1	1320	1008	1	875
1	1321	411	-1	978
1	1322	1288	1	1009
1	1323	1300	-1	1813
1	1324	288	1	1177
1	1325	215	1	1311
1	1326	423	1	1133
1	1327	336	1	1504
1	1328	1039	-1	1425
1	1329	550	1	1358
1	1330	271	-1	981
1	1331	766	1	1346
1	1332	131	-1	1027
1	1333	294	1	1058
1	1334	152	-1	1396
1	1335	909	1	1018
1	1336	638	-1	1154
1	1337	50	1	1026
1	1338	836	1	1522
1	1339	93	-1	1346
1	1340	723	-1	1167
1	1341	1205	1	1623
1	1342	824	1	887
1	1343	646	-1	1017
1	1344	447	1	1002
1	1345	605	1	1211
1	1346	1392	-1	1276
1	1347	764	-1	1409
1	1348	451	-1	1106
1	1349	708	1	938
1	1350	419	1	977
1	1351	1301	-1	1159
1	1352	1263	1	1186
1	1353	303	-1	988
1	1354	1023	1	1094
1	1355	1180	1	1389
1	1356	795	-1	950
1	1357	20	1	1071
1	1358	645	-1	1076
1	1359	490	-1	1638
1	1360	884	1	1234
1	1361	752	-1	1076
1	1362	174	1	1222
1	1363	852	-1	1144
1	1364	1335	-1	1173
1	1365	487	-1	1684
1	1366	858	-1	1275
1	1367	773	-1	1243
1	1368	860	-1	1670
1	1369	1255	1	1125
1	1370	408	-1	2570
1	1371	1011	1	1055
1	1372	845	-1	1195
1	1373	105	-1	1482
1	1374	981	-1	1577
1	1375	161	1	1653
1	1376	719	-1	1268
1	1377	725	-1	1006
1	1378	10	-1	1671
1	1379	320	1	841
1	1380	525	1	882
1	1381	711	1	877
1	1382	1277	1	1469
1	1383	1071	1	1237
1	1384	1068	1	1005
1	1385	625	1	1283
1	1386	831	1	1886
1	1387	1056	1	986
1	1388	1268	-1	1257
1	1389	1155	1	1175
1	1390	173	1	1513
1	1391	617	-1	1304
1	1392	240	-1	1233
1	1393	254	1	1325
1	1394	186	1	1712
1	1395	145	1	1006
1	1396	1101	-1	1035
1	1397	765	1	887
1	1398	706	-1	831
1	1399	959	1	991
1	1400	441	-1	1464
2	1	125	-1	12165
2	2	772	-1	2035
2	3	717	-1	3321
2	4	367	-1	5187
2	5	407	1	1338
2	6	527	1	5533
2	7	491	1	1983
2	8	848	1	2260
2	9	42	1	1326
2	10	660	1	5590
2	11	897	-1	2439
2	12	662	-1	1106
2	13	1195	1	1170
2	14	1162	1	3695
2	15	1094	1	986
2	16	1023	1	1208
2	17	427	1	2532
2	18	140	1	1205
2	19	896	1	1322
2	20	292	-1	2589
2	21	1191	-1	1134
2	22	1242	1	3402
2	23	871	1	1346
2	24	425	1	2158
2	25	449	-1	1134
2	26	1160	-1	3393
2	27	1163	1	1523
2	28	1107	-1	1008
2	29	617	1	2306
2	30	34	1	2652
2	31	581	-1	847
2	32	736	1	2698
2	33	1243	1	2089
2	34	100	-1	1267
2	35	676	1	1607
2	36	1067	-1	1242
2	37	85	-1	2351
2	38	1007	-1	20798
2	39	1118	-1	1835
2	40	298	1	1209
2	41	1018	1	1928
2	42	985	1	945
2	43	371	-1	2488
2	44	625	1	1178
2	45	1232	-1	1258
2	46	271	1	2929
2	47	251	-1	1499
2	48	283	1	1526
2	49	1126	1	2556
2	50	1343	1	1182
2	51	417	1	1275
2	52	823	-1	1907
2	53	560	1	3264
2	54	160	-1	955
2	55	1213	1	3305
2	56	1259	1	1070
2	57	177	1	1930
2	58	408	-1	1924
2	59	512	-1	1333
2	60	1002	-1	5301
2	61	291	1	1042
2	62	58	1	1446
2	63	900	-1	2846
2	64	701	-1	1558
2	65	1377	1	2251
2	66	492	1	1250
2	67	761	1	3873
2	68	856	1	2015
2	69	867	-1	1659
2	70	1371	-1	1487
2	71	137	1	1722
2	72	1076	1	2753
2	73	529	1	2551
2	74	451	1	2844
2	75	1278	-1	3248
2	76	599	1	1410
2	77	311	1	2376
2	78	955	1	2741
2	79	1059	-1	1382
2	80	1129	-1	1603
2	81	434	-1	2295
2	82	584	-1	1815
2	83	86	-1	1544
2	84	1123	1	1793
2	85	437	-1	4803
2	86	74	-1	3138
2	87	1073	-1	2027
2	88	586	1	2495
2	89	1135	1	3802
2	90	1153	-1	1449
2	91	52	-1	1299
2	92	526	-1	1854
2	93	998	-1	2151
2	94	616	1	2280
2	95	378	-1	1146
2	96	469	1	1134
2	97	416	-1	1273
2	98	155	-1	1691
2	99	306	-1	2257
2	100	1145	1	1562
2	101	841	-1	2751
2	102	489	-1	1279
2	103	832	1	2011
2	104	446	-1	1002
2	105	978	-1	1222
2	106	914	-1	1875
2	107	1219	1	1803
2	108	1071	-1	1471
2	109	107	-1	3121
2	110	562	-1	1458
2	111	525	-1	2664
2	112	480	1	1570
2	113	75	-1	1234
2	114	984	1	1750
2	115	214	-1	3411
2	116	541	1	1586
2	117	816	-1	1410
2	118	6	1	1647
2	119	1289	1	1513
2	120	889	-1	2512
2	121	1284	1	1371
2	122	1137	-1	1241
2	123	539	1	2144
2	124	878	-1	1233
2	125	474	-1	1599
2	126	572	1	1560
2	127	282	1	1100
2	128	880	1	1246
2	129	931	-1	1249
2	130	1348	-1	2155
2	131	1190	1	1326
2	132	568	1	3137
2	133	949	-1	1418
2	134	504	1	1642
2	135	1240	1	2192
2	136	1003	1	1185
2	137	387	-1	1162
2	138	1144	1	1670
2	139	894	1	1450
2	140	948	-1	1345
2	141	646	-1	1423
2	142	632	-1	1545
2	143	870	-1	2271
2	144	709	1	1986
2	145	1233	-1	1182
2	146	396	1	1450
2	147	855	-1	2139
2	148	812	-1	1206
2	149	710	-1	1338
2	150	597	1	2286
2	151	339	-1	1739
2	152	176	1	3864
2	153	626	-1	1090
2	154	700	1	2134
2	155	304	1	1708
2	156	1001	-1	1133
2	157	1306	1	1451
2	158	1230	-1	1121
2	159	1299	-1	1719
2	160	647	-1	1699
2	161	694	1	2544
2	162	729	1	1577
2	163	1285	1	1315
2	164	1204	-1	1598
2	165	990	-1	1634
2	166	1108	1	2687
2	167	372	1	2376
2	168	1358	-1	3631
2	169	1055	1	1391
2	170	868	1	4170
2	171	655	1	2863
2	172	801	-1	2809
2	173	309	-1	1193
2	174	794	1	1358
2	175	505	-1	2548
2	176	953	-1	3017
2	177	853	1	1997
2	178	556	-1	2309
2	179	679	1	1129
2	180	735	-1	2288
2	181	1072	1	1242
2	182	1114	1	1469
2	183	226	-1	1210
2	184	811	-1	3745
2	185	364	1	1810
2	186	94	-1	1718
2	187	25	-1	2804
2	188	1177	-1	2304
2	189	673	1	1305
2	190	422	-1	1566
2	191	716	1	1667
2	192	265	-1	2046
2	193	861	-1	3004
2	194	946	1	1695
2	195	850	-1	1634
2	196	403	1	1042
2	197	1112	-1	1053
2	198	501	-1	2491
2	199	754	1	1053
2	200	570	1	1451
2	201	1216	1	2194
2	202	16	-1	1072
2	203	807	1	1083
2	204	15	-1	1307
2	205	146	1	1589
2	206	1253	1	2269
2	207	308	-1	1943
2	208	324	-1	1954
2	209	671	-1	4588
2	210	115	1	1334
2	211	411	-1	1146
2	212	827	1	1563
2	213	935	1	1438
2	214	731	1	2997
2	215	1355	1	1999
2	216	810	1	4779
2	217	1167	-1	1790
2	218	477	1	1363
2	219	658	-1	1138
2	220	2	1	1033
2	221	210	-1	1647
2	222	1335	-1	1402
2	223	925	-1	1919
2	224	757	1	1811
2	225	849	-1	1678
2	226	649	1	1555
2	227	1310	-1	1170
2	228	822	1	3352
2	229	691	-1	1594
2	230	269	-1	3241
2	231	120	-1	1559
2	232	1078	1	3437
2	233	158	-1	1318
2	234	275	1	1339
2	235	267	-1	1377
2	236	612	-1	1767
2	237	1324	-1	1218
2	238	1150	1	2111
2	239	60	-1	2990
2	240	768	-1	1654
2	241	402	-1	2672
2	242	245	-1	2163
2	243	1393	-1	1394
2	244	958	-1	2343
2	245	1203	-1	1065
2	246	892	-1	2422
2	247	1235	1	2397
2	248	1152	1	1508
2	249	1022	1	1011
2	250	1142	1	1822
2	251	1206	1	1323
2	252	370	1	2505
2	253	594	-1	1507
2	254	1315	1	1522
2	255	1084	-1	1638
2	256	1275	-1	1466
2	257	1238	-1	1578
2	258	1164	1	1126
2	259	1353	-1	4490
2	260	1093	-1	1635
2	261	153	1	2247
2	262	1325	1	2367
2	263	404	-1	1246
2	264	102	1	1650
2	265	956	-1	1555
2	266	750	1	1317
2	267	169	-1	1426
2	268	305	1	1664
2	269	770	-1	1057
2	270	874	1	1627
2	271	1031	1	2191
2	272	1170	1	3321
2	273	1070	1	1049
2	274	290	1	1443
2	275	734	-1	3577
2	276	209	1	1121
2	277	693	-1	2064
2	278	1342	1	1009
2	279	780	1	2880
2	280	1039	-1	1676
2	281	1365	1	1256
2	282	331	1	3563
2	283	175	1	1277
2	284	883	1	2172
2	285	1047	1	1170
2	286	1265	-1	2993
2	287	876	1	3040
2	288	344	-1	1970
2	289	583	1	1174
2	290	1017	-1	1075
2	291	665	1	1049
2	292	475	-1	1819
2	293	33	1	1430
2	294	963	-1	3273
2	295	428	-1	1827
2	296	847	-1	4298
2	297	1069	1	1186
2	298	253	1	1679
2	299	1015	-1	2572
2	300	829	1	1326
2	301	73	1	1835
2	302	551	-1	3003
2	303	455	1	1082
2	304	301	1	5759
2	305	951	-1	2901
2	306	600	1	1376
2	307	805	-1	1115
2	308	352	-1	1162
2	309	1291	-1	990
2	310	1080	1	1419
2	311	1372	-1	1259
2	312	88	1	1864
2	313	28	-1	1170
2	314	276	1	1251
2	315	1030	-1	997
2	316	1021	1	1147
2	317	1054	-1	1177
2	318	172	1	1284
2	319	916	-1	2080
2	320	401	1	1082
2	321	557	1	1170
2	322	1317	-1	2514
2	323	129	1	1161
2	324	284	-1	1447
2	325	1060	1	1010
2	326	1331	-1	1403
2	327	481	1	2304
2	328	991	-1	1315
2	329	1321	1	1225
2	330	338	-1	2330
2	331	223	1	2497
2	332	20	-1	2573
2	333	184	-1	4452
2	334	228	1	1166
2	335	961	-1	1042
2	336	235	-1	1603
2	337	143	-1	2913
2	338	682	-1	1659
2	339	302	1	1567
2	340	824	-1	2276
2	341	1005	-1	1271
2	342	909	-1	1555
2	343	101	1	1170
2	344	216	1	2185
2	345	686	-1	2961
2	346	996	1	2260
2	347	256	1	2063
2	348	670	-1	1283
2	349	540	-1	1145
2	350	1366	1	2192
2	351	1140	-1	1187
2	352	1092	1	2591
2	353	980	1	1916
2	354	380	1	2112
2	355	91	1	2019
2	356	1294	1	1582
2	357	1130	1	1795
2	358	1131	-1	1666
2	359	1330	1	1301
2	360	363	-1	2847
2	361	809	1	2056
2	362	39	1	2059
2	363	1268	-1	1358
2	364	190	1	1170
2	365	578	-1	1121
2	366	1141	1	1695
2	367	520	-1	946
2	368	521	-1	2415
2	369	400	-1	2597
2	370	1224	-1	1943
2	371	837	-1	1507
2	372	944	-1	1153
2	373	462	-1	1359
2	374	463	-1	1002
2	375	1274	1	1362
2	376	270	-1	2080
2	377	1251	-1	1707
2	378	500	-1	1727
2	379	55	1	1507
2	380	459	1	3076
2	381	435	1	2491
2	382	132	1	1191
2	383	207	1	2051
2	384	166	1	1121
2	385	1090	-1	1216
2	386	1249	-1	1586
2	387	534	-1	1219
2	388	1134	1	2088
2	389	711	-1	1691
2	390	893	1	1262
2	391	70	1	4804
2	392	1244	-1	1498
2	393	420	1	1519
2	394	442	-1	1754
2	395	1261	-1	2028
2	396	509	1	1383
2	397	141	1	983
2	398	659	1	2026
2	399	708	-1	1203
2	400	1105	1	1162
2	401	640	-1	2642
2	402	443	1	1472
2	403	887	1	5595
2	404	515	1	1287
2	405	1272	-1	2253
2	406	124	1	1911
2	407	1271	1	2334
2	408	1209	-1	2552
2	409	744	-1	2365
2	410	1111	1	1146
2	411	1026	-1	1350
2	412	1322	-1	1138
2	413	755	-1	2228
2	414	1357	1	2872
2	415	1143	-1	1323
2	416	833	-1	1094
2	417	229	-1	1426
2	418	389	1	2019
2	419	148	-1	2296
2	420	406	-1	2019
2	421	346	-1	1943
2	422	582	-1	1043
2	423	611	-1	2648
2	424	303	1	3661
2	425	64	1	1571
2	426	201	-1	1593
2	427	844	-1	1408
2	428	899	-1	1762
2	429	57	-1	2344
2	430	150	-1	3995
2	431	97	1	2516
2	432	242	1	2240
2	433	230	1	2567
2	434	1104	1	2325
2	435	395	1	4469
2	436	473	-1	1555
2	437	7	-1	1462
2	438	806	-1	2627
2	439	1025	-1	3486
2	440	1256	1	2465
2	441	648	-1	1819
2	442	639	-1	2215
2	443	239	-1	2263
2	444	854	1	1511
2	445	1328	-1	1234
2	446	653	-1	1162
2	447	977	1	3954
2	448	615	-1	1787
2	449	1201	1	2513
2	450	83	-1	1762
2	451	627	1	1768
2	452	464	-1	1273
2	453	360	1	2188
2	454	1308	-1	1310
2	455	381	-1	2404
2	456	272	-1	2135
2	457	78	1	2797
2	458	170	-1	2208
2	459	1381	-1	1090
2	460	198	1	1322
2	461	484	1	1375
2	462	1217	1	2324
2	463	1182	-1	1567
2	464	439	1	1515
2	465	5	-1	3458
2	466	236	1	1145
2	467	316	-1	1266
2	468	345	-1	1143
2	469	631	-1	2476
2	470	1304	-1	1911
2	471	1283	1	2637
2	472	1186	-1	3136
2	473	179	1	6106
2	474	393	-1	2036
2	475	590	1	1423
2	476	82	-1	1330
2	477	1049	-1	2316
2	478	968	1	1535
2	479	81	1	1354
2	480	23	1	2696
2	481	934	-1	1955
2	482	1082	1	1485
2	483	607	-1	1659
2	484	1034	1	1267
2	485	218	-1	1070
2	486	995	-1	1136
2	487	376	1	1226
2	488	182	1	2864
2	489	728	1	1146
2	490	508	-1	1458
2	491	99	-1	1366
2	492	293	-1	3397
2	493	1183	1	1430
2	494	537	1	1275
2	495	748	1	3138
2	496	135	1	1835
2	497	11	1	3858
2	498	970	1	1338
2	499	351	-1	1679
2	500	713	1	1867
2	501	908	1	2639
2	502	683	1	1501
2	503	524	1	2112
2	504	296	1	2490
2	505	836	-1	2400
2	506	1314	1	6383
2	507	478	1	1868
2	508	225	1	3153
2	509	767	-1	7585
2	510	726	-1	6423
2	511	840	-1	3891
2	512	277	1	5144
2	513	513	1	1038
2	514	1200	1	2127
2	515	932	-1	1535
2	516	950	-1	953
2	517	1395	-1	2373
2	518	964	-1	1278
2	519	232	1	1643
2	520	168	-1	2231
2	521	1303	-1	1748
2	522	1290	-1	1887
2	523	409	-1	3136
2	524	592	-1	1535
2	525	782	1	1659
2	526	1122	1	1775
2	527	1064	1	2663
2	528	1344	-1	2376
2	529	1197	-1	2351
2	530	87	-1	2383
2	531	441	-1	2076
2	532	71	1	1182
2	533	704	1	1972
2	534	637	1	2319
2	535	147	1	2487
2	536	1136	1	3306
2	537	178	1	1756
2	538	295	1	1091
2	539	1302	-1	1405
2	540	544	1	3974
2	541	790	-1	1074
2	542	1337	1	2893
2	543	1053	1	1181
2	544	920	1	2560
2	545	1218	1	6456
2	546	1051	-1	1746
2	547	1121	1	1319
2	548	745	-1	1153
2	549	721	1	2088
2	550	1392	-1	3409
2	551	1215	1	3465
2	552	1288	-1	2207
2	553	645	1	1346
2	554	325	-1	1864
2	555	941	-1	1434
2	556	106	-1	2864
2	557	565	1	1435
2	558	215	-1	2528
2	559	234	-1	2572
2	560	1350	1	1631
2	561	26	1	1042
2	562	193	-1	1513
2	563	1029	1	3226
2	564	1057	-1	1283
2	565	741	1	1270
2	566	205	1	1258
2	567	885	1	1338
2	568	690	1	1293
2	569	1327	1	1115
2	570	191	-1	2076
2	571	791	-1	1102
2	572	362	-1	1594
2	573	495	-1	2937
2	574	1085	-1	1242
2	575	377	1	2108
2	576	347	-1	1358
2	577	310	1	1963
2	578	358	-1	1254
2	579	1199	-1	1523
2	580	1058	-1	4651
2	581	922	-1	1314
2	582	1383	-1	3418
2	583	49	1	1374
2	584	588	-1	1844
2	585	72	1	1258
2	586	904	-1	1134
2	587	1220	1	1098
2	588	1166	-1	1298
2	589	1223	1	1559
2	590	1155	-1	1290
2	591	222	1	3000
2	592	186	1	4554
2	593	1181	-1	3338
2	594	872	-1	1651
2	595	77	-1	3032
2	596	134	1	2051
2	597	424	-1	2425
2	598	38	1	1218
2	599	280	1	1182
2	600	943	1	1731
2	601	982	1	2946
2	602	697	1	1518
2	603	796	-1	4214
2	604	604	1	2516
2	605	246	1	1744
2	606	730	-1	3525
2	607	1222	-1	1619
2	608	610	-1	4066
2	609	962	-1	1779
2	610	307	-1	3395
2	611	605	-1	3922
2	612	1035	-1	3442
2	613	1179	-1	1395
2	614	145	-1	1046
2	615	1292	1	1329
2	616	928	-1	971
2	617	149	1	1486
2	618	516	-1	1153
2	619	133	1	1132
2	620	398	-1	1991
2	621	663	-1	1275
2	622	895	-1	2960
2	623	1266	1	2034
2	624	817	-1	1112
2	625	1319	1	1490
2	626	104	1	1876
2	627	144	-1	3626
2	628	382	1	3258
2	629	1087	1	1734
2	630	327	-1	2029
2	631	46	1	3450
2	632	200	-1	4402
2	633	819	1	4076
2	634	942	1	2641
2	635	703	1	3176
2	636	1042	1	1086
2	637	733	-1	1539
2	638	219	1	1900
2	639	687	1	1309
2	640	1351	-1	1436
2	641	756	-1	1322
2	642	1374	-1	1647
2	643	875	-1	4651
2	644	1248	-1	921
2	645	487	1	1183
2	646	206	-1	1154
2	647	217	-1	1715
2	648	157	-1	4243
2	649	706	1	1630
2	650	394	1	2558
2	651	835	1	3594
2	652	1334	1	1199
2	653	1099	1	3256
2	654	1384	-1	2287
2	655	1185	-1	3650
2	656	577	-1	2134
2	657	47	-1	1952
2	658	609	-1	3778
2	659	117	-1	3731
2	660	1202	1	4527
2	661	739	1	1171
2	662	1221	-1	1915
2	663	255	1	2481
2	664	785	-1	3627
2	665	203	1	14900
2	666	361	-1	1186
2	667	715	1	1114
2	668	1318	-1	1251
2	669	535	-1	1342
2	670	845	-1	3690
2	671	8	1	3016
2	672	76	1	1503
2	673	10	-1	1216
2	674	753	1	1901
2	675	881	1	1614
2	676	349	1	2913
2	677	1046	-1	2267
2	678	921	1	2465
2	679	740	-1	1098
2	680	976	1	1843
2	681	547	-1	1070
2	682	722	-1	2572
2	683	621	-1	2321
2	684	1192	-1	1209
2	685	903	-1	1601
2	686	628	-1	4238
2	687	1151	-1	2626
2	688	497	1	1354
2	689	877	-1	1110
2	690	185	1	2638
2	691	986	1	192
2	692	1309	-1	1375
2	693	36	-1	2670
2	694	778	1	4852
2	695	279	-1	1320
2	696	891	1	1418
2	697	359	-1	1872
2	698	1050	-1	2821
2	699	1280	-1	1952
2	700	208	-1	1803
2	701	368	1	3678
2	702	538	-1	1404
2	703	1234	-1	2111
2	704	558	1	3807
2	705	418	1	2367
2	706	873	1	3050
2	707	636	1	1964
2	708	1354	1	5735
2	709	482	-1	2284
2	710	1033	1	1550
2	711	110	1	2656
2	712	502	1	1277
2	713	1027	-1	1266
2	714	151	-1	3500
2	715	1043	-1	1586
2	716	718	1	1411
2	717	1019	-1	5176
2	718	61	-1	1707
2	719	971	1	6196
2	720	664	1	1962
2	721	927	-1	1776
2	722	388	1	4050
2	723	1388	-1	1154
2	724	999	1	1667
2	725	109	-1	1584
2	726	369	-1	1569
2	727	314	-1	2401
2	728	220	1	1162
2	729	852	1	1762
2	730	550	-1	5113
2	731	1098	-1	1554
2	732	945	-1	1427
2	733	1024	-1	1535
2	734	966	-1	1650
2	735	1273	-1	1154
2	736	112	1	1327
2	737	1010	-1	1858
2	738	164	-1	2049
2	739	596	1	1939
2	740	905	-1	1403
2	741	684	1	2326
2	742	666	-1	1620
2	743	1176	1	2273
2	744	89	1	1370
2	745	1086	-1	3290
2	746	202	-1	2760
2	747	1125	-1	4864
2	748	249	-1	5180
2	749	1336	1	3273
2	750	385	1	1507
2	751	723	-1	1478
2	752	781	1	1315
2	753	1037	-1	2222
2	754	1260	-1	1997
2	755	32	1	1789
2	756	983	-1	1123
2	757	1198	1	1354
2	758	116	-1	986
2	759	1006	1	2223
2	760	957	1	2269
2	761	1386	-1	1150
2	762	436	1	1347
2	763	933	-1	3802
2	764	317	-1	2483
2	765	173	1	4009
2	766	1178	-1	1023
2	767	828	1	1387
2	768	751	-1	1866
2	769	1013	1	1439
2	770	789	1	2602
2	771	1214	1	1882
2	772	997	-1	1474
2	773	69	-1	2142
2	774	355	-1	3080
2	775	224	1	1572
2	776	635	1	2263
2	777	591	1	1635
2	778	910	-1	1289
2	779	533	-1	3378
2	780	554	-1	1146
2	781	332	-1	3817
2	782	1396	-1	2776
2	783	1297	-1	1830
2	784	142	-1	1780
2	785	9	-1	1820
2	786	902	-1	3448
2	787	1375	1	1351
2	788	898	1	1698
2	789	1113	1	1331
2	790	114	-1	1222
2	791	1124	1	1683
2	792	1380	1	2439
2	793	668	-1	953
2	794	357	-1	1875
2	795	113	-1	2553
2	796	1052	1	1729
2	797	297	1	1064
2	798	1312	-1	1082
2	799	258	1	1370
2	800	329	-1	2304
2	801	281	1	2264
2	802	266	-1	1845
2	803	254	1	3625
2	804	1390	-1	3659
2	805	619	1	1184
2	806	189	1	1313
2	807	374	-1	3838
2	808	410	1	1082
2	809	1127	-1	1571
2	810	181	1	1090
2	811	1077	-1	1382
2	812	237	-1	993
2	813	3	1	1227
2	814	1254	-1	1735
2	815	286	-1	1291
2	816	461	1	1130
2	817	1065	-1	1350
2	818	1231	-1	2108
2	819	1279	-1	3689
2	820	13	1	1904
2	821	1245	1	7217
2	822	788	1	1631
2	823	289	-1	1258
2	824	1307	-1	1904
2	825	485	-1	4684
2	826	59	1	1835
2	827	17	1	2024
2	828	661	1	2076
2	829	762	-1	2119
2	830	56	1	1402
2	831	630	-1	1506
2	832	765	-1	1648
2	833	1364	-1	2167
2	834	940	1	1367
2	835	988	-1	3589
2	836	1399	1	2067
2	837	677	-1	1539
2	838	566	1	2016
2	839	1117	1	1491
2	840	1305	-1	1109
2	841	1066	1	1347
2	842	777	-1	3252
2	843	555	1	1162
2	844	656	1	1900
2	845	923	1	2342
2	846	54	1	4300
2	847	1338	-1	1394
2	848	808	1	1231
2	849	174	-1	2637
2	850	336	-1	2031
2	851	1196	-1	1073
2	852	483	1	1889
2	853	601	1	1129
2	854	732	-1	1387
2	855	1316	1	1173
2	856	522	-1	1540
2	857	860	-1	1915
2	858	1247	1	1151
2	859	559	1	1330
2	860	784	1	906
2	861	651	-1	1082
2	862	496	1	2093
2	863	366	1	2466
2	864	399	1	1417
2	865	561	1	3883
2	866	453	-1	1451
2	867	460	1	1070
2	868	433	-1	1683
2	869	95	1	1266
2	870	1382	-1	1311
2	871	952	-1	1034
2	872	564	1	1907
2	873	1074	-1	2056
2	874	1110	1	3121
2	875	993	-1	1346
2	876	759	1	2978
2	877	1367	-1	2738
2	878	138	1	2146
2	879	797	-1	1593
2	880	233	1	1847
2	881	1341	-1	1563
2	882	1175	-1	850
2	883	457	-1	1624
2	884	426	-1	1827
2	885	1226	-1	3490
2	886	580	-1	2292
2	887	654	-1	2083
2	888	35	1	1272
2	889	571	1	3353
2	890	1079	1	953
2	891	1147	1	951
2	892	333	1	2055
2	893	814	1	1511
2	894	180	1	2512
2	895	1228	-1	1419
2	896	1363	-1	1977
2	897	975	1	1306
2	898	795	1	1630
2	899	1040	-1	1247
2	900	429	-1	1728
2	901	699	-1	1704
2	902	579	1	1595
2	903	397	-1	2729
2	904	1044	1	3379
2	905	830	-1	1763
2	906	199	1	4732
2	907	764	-1	2298
2	908	1237	1	1130
2	909	1326	1	1615
2	910	1269	-1	1467
2	911	334	1	1467
2	912	31	1	1431
2	913	702	-1	1106
2	914	312	-1	1904
2	915	105	1	2757
2	916	260	1	2569
2	917	954	-1	3069
2	918	299	1	2173
2	919	528	-1	2023
2	920	1246	1	2244
2	921	890	1	1223
2	922	288	-1	1082
2	923	486	1	1113
2	924	287	-1	1147
2	925	818	-1	1519
2	926	838	1	1283
2	927	593	1	2176
2	928	712	1	1211
2	929	669	-1	1307
2	930	18	1	2312
2	931	746	-1	5069
2	932	1329	-1	1202
2	933	66	-1	1359
2	934	719	-1	1106
2	935	213	1	1145
2	936	930	-1	1203
2	937	650	1	1367
2	938	84	-1	1074
2	939	545	-1	1820
2	940	641	-1	1190
2	941	321	-1	7788
2	942	466	-1	1892
2	943	846	-1	1912
2	944	498	-1	2109
2	945	40	1	2417
2	946	606	1	1691
2	947	183	-1	970
2	948	567	1	1047
2	949	274	1	2253
2	950	163	-1	1783
2	951	41	1	1115
2	952	44	-1	1066
2	953	815	-1	1572
2	954	779	-1	1695
2	955	1252	-1	1852
2	956	1100	1	1246
2	957	337	-1	4709
2	958	618	-1	1795
2	959	391	-1	1303
2	960	248	-1	1369
2	961	523	-1	1075
2	962	1139	-1	2135
2	963	667	1	1332
2	964	1165	-1	1129
2	965	1061	1	1143
2	966	629	-1	1162
2	967	1075	-1	1225
2	968	974	1	1488
2	969	886	1	1362
2	970	638	-1	1572
2	971	1014	1	1855
2	972	1120	1	1595
2	973	1333	-1	1203
2	974	1088	-1	1535
2	975	973	1	1298
2	976	1062	-1	2441
2	977	1016	-1	1770
2	978	1012	1	1689
2	979	1174	-1	1041
2	980	1119	1	1275
2	981	926	-1	1507
2	982	1287	1	1150
2	983	787	-1	978
2	984	820	-1	2208
2	985	62	-1	1707
2	986	1277	1	1747
2	987	517	-1	1142
2	988	257	-1	1436
2	989	1391	1	4242
2	990	1180	1	1411
2	991	415	-1	1029
2	992	979	1	1548
2	993	1020	-1	1679
2	994	1173	1	1283
2	995	375	-1	2340
2	996	1352	1	3788
2	997	313	-1	2280
2	998	278	-1	1419
2	999	192	-1	1166
2	1000	1115	1	1282
2	1001	543	-1	1122
2	1002	714	1	1887
2	1003	1102	1	1450
2	1004	680	-1	1147
2	1005	51	1	1422
2	1006	1263	-1	1042
2	1007	447	1	1595
2	1008	1133	-1	1137
2	1009	241	-1	1801
2	1010	1000	-1	1667
2	1011	263	1	1318
2	1012	162	1	1194
2	1013	1262	-1	1339
2	1014	1313	-1	1446
2	1015	705	-1	2053
2	1016	696	1	1138
2	1017	1106	-1	1294
2	1018	613	-1	2197
2	1019	643	-1	1783
2	1020	771	1	4644
2	1021	465	-1	1059
2	1022	231	1	1867
2	1023	467	-1	3458
2	1024	536	1	1494
2	1025	1207	-1	1243
2	1026	831	1	1852
2	1027	749	1	1638
2	1028	688	-1	1290
2	1029	1148	1	1475
2	1030	285	1	1688
2	1031	1229	-1	1202
2	1032	128	1	1258
2	1033	1009	-1	895
2	1034	775	1	1730
2	1035	1189	-1	1395
2	1036	574	1	1046
2	1037	165	-1	1146
2	1038	634	1	2734
2	1039	549	1	1791
2	1040	773	1	3930
2	1041	821	1	1450
2	1042	252	-1	1095
2	1043	421	1	1137
2	1044	161	-1	2849
2	1045	322	-1	1627
2	1046	1205	1	1187
2	1047	127	-1	1382
2	1048	1394	1	1050
2	1049	488	-1	1106
2	1050	136	-1	1904
2	1051	452	-1	1106
2	1052	793	-1	2164
2	1053	720	-1	1190
2	1054	1063	1	1675
2	1055	1158	-1	1546
2	1056	1116	1	1544
2	1057	915	-1	1850
2	1058	623	1	1904
2	1059	595	-1	2388
2	1060	365	-1	1062
2	1061	938	-1	1355
2	1062	1172	-1	2424
2	1063	1	1	2389
2	1064	244	-1	1346
2	1065	960	-1	2032
2	1066	575	1	1266
2	1067	857	1	1574
2	1068	939	1	1628
2	1069	911	1	1611
2	1070	681	-1	1182
2	1071	92	-1	1226
2	1072	1157	1	1058
2	1073	813	1	1174
2	1074	499	1	1538
2	1075	1032	-1	1692
2	1076	929	1	1366
2	1077	450	1	1483
2	1078	53	-1	2535
2	1079	992	1	1073
2	1080	1227	-1	2236
2	1081	1332	1	2257
2	1082	273	-1	3113
2	1083	383	1	1627
2	1084	967	-1	2360
2	1085	1068	1	1386
2	1086	1255	-1	1347
2	1087	576	-1	805
2	1088	1188	1	1354
2	1089	1400	1	1386
2	1090	913	-1	1319
2	1091	531	1	1194
2	1092	1096	-1	1354
2	1093	1369	1	1286
2	1094	1004	-1	977
2	1095	1038	-1	2204
2	1096	454	1	1159
2	1097	589	-1	1803
2	1098	519	1	2929
2	1099	1161	-1	3033
2	1100	320	1	2139
2	1101	725	1	2020
2	1102	456	-1	2880
2	1103	440	1	1579
2	1104	1346	1	4764
2	1105	689	-1	5678
2	1106	204	1	3562
2	1107	842	1	7941
2	1108	340	-1	1214
2	1109	803	1	1130
2	1110	598	-1	1587
2	1111	1301	-1	3312
2	1112	530	1	1863
2	1113	738	-1	1548
2	1114	445	1	1249
2	1115	1376	-1	1158
2	1116	195	1	1155
2	1117	126	-1	1323
2	1118	1008	1	1782
2	1119	1109	-1	1074
2	1120	1356	1	1179
2	1121	79	-1	1719
2	1122	21	-1	1218
2	1123	68	-1	1274
2	1124	212	1	1919
2	1125	624	1	2020
2	1126	476	1	1847
2	1127	888	1	1916
2	1128	1311	1	1414
2	1129	901	-1	1820
2	1130	318	1	1554
2	1131	552	-1	2817
2	1132	532	-1	4378
2	1133	24	-1	1728
2	1134	1211	1	1401
2	1135	326	1	2424
2	1136	1239	1	1467
2	1137	1349	-1	1338
2	1138	167	-1	1848
2	1139	1362	-1	1667
2	1140	118	1	2603
2	1141	924	1	938
2	1142	1028	-1	1894
2	1143	1171	-1	1267
2	1144	672	-1	946
2	1145	490	1	1298
2	1146	514	-1	2199
2	1147	1286	-1	2464
2	1148	1036	1	1795
2	1149	1397	1	2377
2	1150	695	-1	1980
2	1151	315	-1	1571
2	1152	569	-1	1711
2	1153	1389	1	1924
2	1154	742	-1	2119
2	1155	1359	1	1705
2	1156	250	-1	1489
2	1157	14	-1	2092
2	1158	1103	-1	1105
2	1159	760	1	1231
2	1160	262	1	2620
2	1161	1379	1	2137
2	1162	412	1	1947
2	1163	503	1	1904
2	1164	563	1	2108
2	1165	573	-1	1871
2	1166	37	-1	1988
2	1167	43	-1	2528
2	1168	862	1	1587
2	1169	1081	-1	1295
2	1170	1011	1	1627
2	1171	657	1	2993
2	1172	882	-1	1491
2	1173	769	-1	2864
2	1174	1345	1	2164
2	1175	959	1	1566
2	1176	197	-1	1131
2	1177	989	-1	2184
2	1178	96	-1	1026
2	1179	917	-1	1186
2	1180	776	1	1511
2	1181	1378	-1	2027
2	1182	90	-1	1355
2	1183	608	1	2119
2	1184	799	-1	1243
2	1185	692	1	1670
2	1186	221	-1	1691
2	1187	1146	1	2400
2	1188	987	1	1659
2	1189	341	-1	1796
2	1190	494	1	1582
2	1191	431	-1	1363
2	1192	747	-1	1695
2	1193	1149	1	1258
2	1194	858	-1	1257
2	1195	156	1	1833
2	1196	259	1	1267
2	1197	1156	1	2601
2	1198	866	-1	1402
2	1199	633	1	1242
2	1200	1339	-1	1239
2	1201	1041	1	2658
2	1202	119	1	3664
2	1203	1097	-1	1187
2	1204	343	1	1533
2	1205	1298	1	1588
2	1206	906	-1	1107
2	1207	342	1	2456
2	1208	384	1	1586
2	1209	1282	-1	1559
2	1210	1187	1	1860
2	1211	1323	-1	1242
2	1212	585	-1	1118
2	1213	1184	1	1700
2	1214	108	-1	1169
2	1215	863	-1	3690
2	1216	386	1	1687
2	1217	373	-1	1507
2	1218	1056	1	1611
2	1219	50	1	1510
2	1220	912	-1	1154
2	1221	622	1	2288
2	1222	1083	-1	1338
2	1223	1320	1	1267
2	1224	22	1	1719
2	1225	130	1	2244
2	1226	947	-1	1431
2	1227	1361	-1	2685
2	1228	48	-1	1407
2	1229	546	-1	1105
2	1230	479	-1	2183
2	1231	1257	-1	4618
2	1232	548	1	1154
2	1233	969	-1	2985
2	1234	294	-1	3567
2	1235	27	1	1046
2	1236	139	-1	1201
2	1237	152	-1	1292
2	1238	907	-1	1005
2	1239	471	-1	3181
2	1240	652	1	1888
2	1241	510	-1	3177
2	1242	727	1	1210
2	1243	843	-1	2843
2	1244	1398	1	1700
2	1245	1270	-1	1234
2	1246	965	-1	2791
2	1247	1373	-1	4492
2	1248	1340	1	2888
2	1249	4	-1	1339
2	1250	247	1	3176
2	1251	1154	-1	1610
2	1252	423	1	1143
2	1253	758	-1	3007
2	1254	981	1	2112
2	1255	1128	-1	1515
2	1256	12	-1	2360
2	1257	243	-1	1178
2	1258	851	-1	1139
2	1259	937	1	1663
2	1260	884	1	1249
2	1261	122	-1	4828
2	1262	1293	1	1503
2	1263	350	-1	1948
2	1264	1095	1	1397
2	1265	774	-1	2189
2	1266	839	-1	2064
2	1267	1368	-1	2214
2	1268	448	1	3492
2	1269	804	1	3424
2	1270	30	1	1379
2	1271	644	-1	1366
2	1272	1387	1	1243
2	1273	1132	1	1538
2	1274	743	1	3257
2	1275	675	-1	1394
2	1276	261	-1	3234
2	1277	707	1	1275
2	1278	238	-1	1350
2	1279	919	1	1290
2	1280	1295	-1	1926
2	1281	1169	1	1892
2	1282	154	1	4177
2	1283	865	1	2274
2	1284	123	1	2732
2	1285	766	-1	1735
2	1286	1225	1	1314
2	1287	1168	-1	1475
2	1288	430	-1	2855
2	1289	227	-1	2560
2	1290	936	-1	1257
2	1291	678	1	1915
2	1292	1045	-1	2073
2	1293	603	1	1771
2	1294	1241	-1	1558
2	1295	786	-1	1122
2	1296	1385	-1	1250
2	1297	542	-1	1830
2	1298	356	1	2454
2	1299	674	1	1703
2	1300	194	-1	1955
2	1301	196	-1	3341
2	1302	1296	-1	1396
2	1303	413	1	1415
2	1304	121	-1	1314
2	1305	1360	1	1154
2	1306	994	-1	1383
2	1307	724	1	1723
2	1308	1236	-1	2368
2	1309	1159	-1	1483
2	1310	103	-1	1153
2	1311	800	-1	965
2	1312	1194	1	1379
2	1313	159	-1	1835
2	1314	802	-1	2296
2	1315	792	1	1282
2	1316	511	-1	1680
2	1317	348	1	1306
2	1318	1210	1	1943
2	1319	859	1	4427
2	1320	419	-1	1354
2	1321	268	1	1289
2	1322	918	-1	1280
2	1323	470	1	1746
2	1324	330	1	2151
2	1325	19	1	1402
2	1326	67	1	2150
2	1327	698	1	2039
2	1328	493	-1	2604
2	1329	1370	1	1731
2	1330	335	-1	1386
2	1331	1089	-1	1470
2	1332	506	1	1516
2	1333	323	-1	1050
2	1334	869	1	1967
2	1335	405	-1	1146
2	1336	1264	1	1378
2	1337	587	-1	1439
2	1338	111	1	1314
2	1339	65	1	2497
2	1340	752	1	1771
2	1341	468	1	1282
2	1342	300	1	1975
2	1343	432	1	1283
2	1344	642	1	3577
2	1345	472	-1	1371
2	1346	63	1	1126
2	1347	783	-1	1065
2	1348	507	1	1522
2	1349	825	1	1304
2	1350	98	1	1337
2	1351	45	-1	1276
2	1352	354	1	1181
2	1353	1276	-1	1106
2	1354	763	1	1426
2	1355	1212	1	1266
2	1356	1347	1	2096
2	1357	392	-1	3321
2	1358	737	-1	1546
2	1359	1250	1	1231
2	1360	319	1	1658
2	1361	438	1	1315
2	1362	353	1	1663
2	1363	602	1	1851
2	1364	826	-1	1767
2	1365	1091	1	2380
2	1366	1208	-1	1283
2	1367	187	-1	1999
2	1368	458	-1	1988
2	1369	80	-1	1791
2	1370	444	-1	3193
2	1371	1101	1	1234
2	1372	1258	-1	1130
2	1373	240	-1	2600
2	1374	93	-1	1779
2	1375	1267	1	1222
2	1376	518	1	1274
2	1377	390	-1	1579
2	1378	1048	1	1775
2	1379	211	1	1915
2	1380	685	1	1278
2	1381	620	1	1988
2	1382	171	-1	1975
2	1383	972	1	1170
2	1384	414	-1	1154
2	1385	1138	1	2223
2	1386	379	-1	2500
2	1387	834	-1	1952
2	1388	29	1	1186
2	1389	798	-1	1274
2	1390	1281	1	3130
2	1391	1300	1	1474
2	1392	1193	1	989
2	1393	879	-1	1507
2	1394	328	1	1763
2	1395	131	1	2536
2	1396	188	1	3641
2	1397	614	-1	1651
2	1398	864	1	1046
2	1399	264	-1	2628
2	1400	553	-1	2617
3	1	1294	-1	13823
3	2	1010	-1	2888
3	3	1054	-1	3398
3	4	446	1	2870
3	5	1203	1	6202
3	6	732	1	14453
3	7	379	-1	1643
3	8	1306	-1	4075
3	9	841	-1	2242
3	10	34	-1	3039
3	11	1277	-1	2068
3	12	387	-1	5253
3	13	489	-1	4473
3	14	1169	-1	1853
3	15	60	1	3951
3	16	1018	-1	5270
3	17	257	-1	3337
3	18	261	1	2099
3	19	833	-1	1544
3	20	836	-1	4326
3	21	62	-1	1928
3	22	1210	1	3182
3	23	307	1	141
3	24	421	1	3330
3	25	893	1	2092
3	26	540	-1	2858
3	27	112	1	1891
3	28	976	-1	3663
3	29	699	-1	1737
3	30	250	-1	1317
3	31	1399	-1	1487
3	32	873	-1	1974
3	33	900	-1	1872
3	34	915	-1	1570
3	35	131	-1	1499
3	36	783	-1	1520
3	37	848	1	2822
3	38	130	1	1826
3	39	956	-1	1623
3	40	371	-1	1408
3	41	159	-1	11454
3	42	188	-1	2436
3	43	904	1	1275
3	44	129	1	2379
3	45	1156	-1	1157
3	46	953	-1	1004
3	47	488	-1	4199
3	48	452	1	7073
3	49	352	1	2542
3	50	210	-1	13858
3	51	396	-1	3135
3	52	351	-1	1301
3	53	362	-1	1667
3	54	676	-1	2869
3	55	1368	-1	1849
3	56	767	-1	5447
3	57	1394	1	3186
3	58	1318	-1	1856
3	59	1159	-1	1619
3	60	1302	-1	1759
3	61	260	-1	1444
3	62	903	-1	1482
3	63	1349	-1	2837
3	64	846	1	4860
3	65	1390	-1	4528
3	66	1132	-1	8108
3	67	654	1	1537
3	68	890	-1	5763
3	69	564	-1	895
3	70	971	-1	1383
3	71	50	-1	2833
3	72	1067	1	2811
3	73	1091	1	1763
3	74	853	-1	2563
3	75	722	1	2751
3	76	827	-1	1144
3	77	148	-1	1386
3	78	854	-1	1264
3	79	744	1	6282
3	80	614	1	1599
3	81	988	-1	2485
3	82	717	-1	1370
3	83	1170	-1	1677
3	84	1222	-1	2711
3	85	473	-1	2904
3	86	1181	-1	2044
3	87	1004	-1	1121
3	88	1072	1	2096
3	89	691	-1	2084
3	90	1003	-1	1689
3	91	13	1	3262
3	92	1178	-1	1808
3	93	9	1	2733
3	94	383	1	3679
3	95	799	1	1242
3	96	1369	1	2236
3	97	475	1	1280
3	98	1205	-1	5298
3	99	236	-1	3494
3	100	278	-1	1554
3	101	26	-1	4431
3	102	1068	-1	1452
3	103	202	-1	3501
3	104	1197	-1	3120
3	105	107	1	2531
3	106	372	1	185
3	107	276	-1	2327
3	108	348	-1	1216
3	109	1252	-1	2355
3	110	408	-1	1924
3	111	87	-1	1652
3	112	1110	-1	1759
3	113	16	1	2187
3	114	541	-1	1390
3	115	274	-1	4838
3	116	1243	1	1472
3	117	138	-1	3032
3	118	750	1	1949
3	119	821	-1	1860
3	120	1127	-1	1652
3	121	51	1	1334
3	122	711	-1	2845
3	123	624	1	3289
3	124	1028	-1	2410
3	125	1328	1	1589
3	126	428	1	1785
3	127	655	-1	2241
3	128	1199	-1	1343
3	129	137	-1	1445
3	130	888	1	1258
3	131	1374	1	1277
3	132	388	1	1462
3	133	548	-1	1815
3	134	768	-1	1342
3	135	173	-1	1915
3	136	273	-1	1886
3	137	507	-1	1225
3	138	1373	-1	2076
3	139	1189	-1	3130
3	140	728	-1	933
3	141	1321	1	3617
3	142	709	1	4227
3	143	801	-1	1170
3	144	652	1	2033
3	145	565	-1	11464
3	146	265	-1	6460
3	147	622	-1	1795
3	148	1266	-1	987
3	149	1244	1	1845
3	150	1335	1	1654
3	151	993	1	1677
3	152	1365	1	1918
3	153	234	1	1731
3	154	1241	-1	11082
3	155	231	-1	3483
3	156	216	1	1366
3	157	898	1	1716
3	158	633	1	13195
3	159	680	-1	1503
3	160	1272	-1	1656
3	161	1314	-1	874
3	162	907	-1	68684
3	163	132	1	2225
3	164	494	-1	905
3	165	724	1	1130
3	166	1201	-1	1133
3	167	267	-1	1380
3	168	206	1	1120
3	169	286	-1	1504
3	170	537	-1	2075
3	171	110	-1	1129
3	172	1338	1	11571
3	173	118	1	972
3	174	942	1	1155
3	175	597	1	1341
3	176	1184	1	1668
3	177	478	-1	1504
3	178	392	-1	957
3	179	868	-1	1775
3	180	1212	-1	1010
3	181	254	-1	1864
3	182	366	-1	1423
3	183	957	1	1034
3	184	1398	1	1795
3	185	155	-1	1155
3	186	350	-1	1252
3	187	604	1	1530
3	188	20	1	2885
3	189	972	-1	1520
3	190	1312	-1	1460
3	191	577	-1	1775
3	192	1380	-1	1721
3	193	1362	-1	1287
3	194	96	1	1593
3	195	921	-1	1666
3	196	895	-1	1274
3	197	384	-1	1463
3	198	872	-1	1797
3	199	240	-1	589
3	200	694	1	838
3	201	658	1	4132
3	202	1115	1	1207
3	203	1265	-1	862
3	204	752	-1	959
3	205	766	-1	1200
3	206	838	1	3220
3	207	402	1	184
3	208	189	-1	1235
3	209	1055	1	1400
3	210	249	1	1262
3	211	42	-1	1076
3	212	1344	-1	956
3	213	140	-1	1313
3	214	72	1	3310
3	215	1289	1	1438
3	216	1269	1	1516
3	217	248	1	1810
3	218	167	-1	927
3	219	589	-1	2594
3	220	77	1	1376
3	221	1278	-1	1750
3	222	595	1	922
3	223	377	1	1460
3	224	263	1	1375
3	225	547	1	1841
3	226	962	1	1969
3	227	1303	-1	1495
3	228	877	-1	1551
3	229	487	-1	1495
3	230	438	1	1295
3	231	611	1	1426
3	232	1325	1	2289
3	233	1340	-1	2046
3	234	178	1	4912
3	235	223	1	1505
3	236	6	1	2251
3	237	737	1	1554
3	238	125	1	7093
3	239	669	-1	1177
3	240	525	1	1130
3	241	999	-1	862
3	242	86	-1	811
3	243	515	-1	1803
3	244	1204	-1	1169
3	245	1191	1	1158
3	246	139	1	1141
3	247	179	-1	1131
3	248	474	1	1217
3	249	1046	-1	1340
3	250	616	-1	1228
3	251	303	1	1832
3	252	959	-1	1469
3	253	1248	-1	808
3	254	297	1	1017
3	255	964	-1	1135
3	256	1268	1	1307
3	257	469	1	1291
3	258	195	-1	1218
3	259	730	-1	1188
3	260	191	1	1355
3	261	862	1	1043
3	262	925	-1	1813
3	263	304	-1	1374
3	264	319	1	2341
3	265	527	1	1162
3	266	917	-1	851
3	267	197	-1	1706
3	268	214	-1	1840
3	269	95	1	1244
3	270	1395	-1	1647
3	271	317	-1	648
3	272	664	-1	1573
3	273	10	1	2275
3	274	1111	-1	1272
3	275	1076	-1	1544
3	276	689	1	4974
3	277	1035	-1	1203
3	278	1237	-1	237
3	279	1334	-1	1464
3	280	814	1	873
3	281	849	1	186
3	282	262	1	1603
3	283	818	1	1275
3	284	458	-1	1022
3	285	928	-1	2227
3	286	499	1	2219
3	287	916	-1	896
3	288	1194	-1	2603
3	289	695	-1	1904
3	290	1400	-1	2439
3	291	330	-1	2556
3	292	1233	-1	4207
3	293	906	-1	1874
3	294	671	-1	2204
3	295	1017	-1	1723
3	296	1117	-1	1706
3	297	562	-1	1956
3	298	150	-1	1456
3	299	1232	-1	1376
3	300	35	1	986
3	301	295	-1	20417
3	302	407	1	1237
3	303	359	1	1111
3	304	1073	1	1838
3	305	896	1	2954
3	306	430	1	1117
3	307	1290	1	1166
3	308	822	-1	813
3	309	41	-1	932
3	310	55	-1	1148
3	311	588	-1	1003
3	312	1164	1	1171
3	313	1345	-1	1187
3	314	1366	1	981
3	315	7	1	1000
3	316	1023	-1	1251
3	317	296	1	1390
3	318	698	1	1146
3	319	603	1	1384
3	320	865	-1	1414
3	321	453	-1	2707
3	322	69	-1	1830
3	323	306	-1	1458
3	324	756	-1	1491
3	325	1261	-1	1943
3	326	305	1	2590
3	327	1319	-1	1720
3	328	205	-1	1218
3	329	119	1	1333
3	330	98	1	11054
3	331	424	-1	1466
3	332	996	-1	905
3	333	111	1	1392
3	334	742	-1	1180
3	335	486	1	1578
3	336	574	1	2255
3	337	686	-1	2291
3	338	656	1	1069
3	339	1188	1	1152
3	340	463	1	1639
3	341	1092	1	1402
3	342	1009	1	2246
3	343	64	1	1543
3	344	287	-1	1338
3	345	553	-1	1916
3	346	939	-1	5937
3	347	776	-1	1604
3	348	17	-1	1876
3	349	984	-1	3325
3	350	991	1	7502
3	351	1393	1	1649
3	352	1331	1	2324
3	353	944	-1	3314
3	354	735	-1	1665
3	355	334	-1	1790
3	356	1229	-1	1532
3	357	659	1	6500
3	358	1258	-1	1989
3	359	324	1	2122
3	360	423	-1	1924
3	361	575	-1	1269
3	362	483	-1	1528
3	363	1245	-1	1508
3	364	816	1	1937
3	365	1019	-1	1041
3	366	887	1	908
3	367	992	-1	1227
3	368	403	-1	1154
3	369	963	-1	1022
3	370	175	-1	1604
3	371	497	-1	1190
3	372	880	-1	2646
3	373	612	-1	1309
3	374	636	1	830
3	375	281	1	1340
3	376	58	-1	2914
3	377	419	1	1071
3	378	1358	-1	1973
3	379	504	1	1396
3	380	994	1	1096
3	381	643	-1	1852
3	382	251	-1	5165
3	383	171	1	1205
3	384	1119	1	1669
3	385	84	-1	1238
3	386	945	1	6472
3	387	765	-1	1751
3	388	753	-1	1374
3	389	618	-1	1477
3	390	808	-1	1477
3	391	76	-1	964
3	392	207	1	1302
3	393	929	-1	1428
3	394	701	-1	1054
3	395	538	1	2558
3	396	825	1	1882
3	397	448	-1	1275
3	398	14	-1	1607
3	399	1383	1	1517
3	400	1098	1	2004
3	401	560	1	3743
3	402	869	-1	1000
3	403	88	-1	253
3	404	459	1	1486
3	405	242	1	202
3	406	1288	-1	1445
3	407	136	-1	2523
3	408	355	-1	1335
3	409	1148	-1	3145
3	410	663	-1	1138
3	411	1052	1	1515
3	412	1387	1	1026
3	413	104	-1	1274
3	414	948	-1	1336
3	415	342	-1	1203
3	416	1196	1	1250
3	417	1341	1	1236
3	418	375	1	2417
3	419	837	-1	1364
3	420	1384	1	1670
3	421	1337	-1	1810
3	422	1223	1	1305
3	423	773	1	33091
3	424	1142	1	947
3	425	786	1	1091
3	426	294	1	1241
3	427	974	1	2504
3	428	883	1	1073
3	429	182	1	908
3	430	1150	-1	1109
3	431	746	-1	1728
3	432	341	-1	776
3	433	480	-1	1854
3	434	812	1	1436
3	435	619	1	1211
3	436	482	1	1309
3	437	433	1	1589
3	438	978	-1	2157
3	439	485	1	1218
3	440	1120	1	1082
3	441	521	-1	1837
3	442	228	1	5119
3	443	1025	-1	2711
3	444	1030	-1	1087
3	445	641	-1	1352
3	446	1133	-1	1520
3	447	1144	-1	1154
3	448	194	-1	904
3	449	357	1	1511
3	450	1087	1	1222
3	451	1279	-1	1116
3	452	1219	-1	1193
3	453	1116	1	536
3	454	539	-1	809
3	455	1095	1	1321
3	456	1336	-1	1131
3	457	1385	-1	883
3	458	573	-1	1835
3	459	520	-1	1912
3	460	196	-1	987
3	461	126	1	1330
3	462	965	1	248
3	463	15	-1	1542
3	464	721	-1	1117
3	465	831	-1	1787
3	466	323	-1	752
3	467	347	1	1328
3	468	399	-1	7704
3	469	1275	1	959
3	470	496	1	1107
3	471	336	-1	914
3	472	1287	-1	602
3	473	1069	1	509
3	474	449	-1	390
3	475	1324	1	583
3	476	510	1	950
3	477	94	-1	709
3	478	1316	1	1115
3	479	863	-1	720
3	480	508	1	10318
3	481	18	1	5316
3	482	824	-1	1390
3	483	1193	-1	973
3	484	404	1	532
3	485	1101	-1	716
3	486	1134	1	818
3	487	1168	1	979
3	488	823	1	472
3	489	230	-1	2581
3	490	955	-1	1989
3	491	221	-1	1552
3	492	1317	-1	999
3	493	1093	1	850
3	494	252	1	1912
3	495	114	1	1534
3	496	1220	-1	3716
3	497	444	-1	2868
3	498	165	-1	1573
3	499	358	-1	1474
3	500	201	-1	1684
3	501	245	-1	1742
3	502	418	-1	1085
3	503	755	-1	1188
3	504	542	-1	956
3	505	1198	-1	1295
3	506	1208	1	3264
3	507	791	1	1659
3	508	1042	-1	1464
3	509	181	-1	1103
3	510	217	-1	1383
3	511	840	-1	1150
3	512	466	-1	1094
3	513	256	1	2451
3	514	660	1	965
3	515	1126	-1	1272
3	516	37	-1	1488
3	517	1015	-1	931
3	518	476	-1	1069
3	519	22	1	1284
3	520	213	1	1347
3	521	1137	-1	1375
3	522	769	1	5941
3	523	160	1	1256
3	524	678	1	1285
3	525	1339	1	1632
3	526	512	1	1538
3	527	1071	-1	4648
3	528	149	1	2372
3	529	436	1	1052
3	530	1378	-1	1266
3	531	668	1	1323
3	532	1355	-1	1293
3	533	326	-1	1072
3	534	789	1	1169
3	535	163	-1	1044
3	536	782	1	3428
3	537	886	1	2031
3	538	580	1	10239
3	539	590	1	1988
3	540	123	1	1550
3	541	1131	1	1309
3	542	844	1	1100
3	543	105	-1	1554
3	544	832	-1	1358
3	545	1094	1	2093
3	546	1301	1	2141
3	547	800	1	6846
3	548	817	-1	1561
3	549	857	1	3155
3	550	806	-1	954
3	551	1285	-1	868
3	552	301	-1	926
3	553	354	-1	1364
3	554	901	1	1305
3	555	1242	-1	2033
3	556	233	1	2216
3	557	712	1	1775
3	558	545	1	907
3	559	523	1	1023
3	560	75	-1	1998
3	561	454	-1	908
3	562	569	1	1585
3	563	555	-1	1880
3	564	45	-1	1687
3	565	1249	-1	1651
3	566	398	1	1711
3	567	343	1	1554
3	568	219	-1	1605
3	569	719	-1	1641
3	570	706	-1	1352
3	571	1250	-1	1465
3	572	49	-1	1271
3	573	464	-1	7224
3	574	1043	1	1247
3	575	552	1	1247
3	576	1053	1	801
3	577	310	1	718
3	578	1106	1	797
3	579	394	-1	703
3	580	247	1	1508
3	581	830	1	1016
3	582	1286	1	1474
3	583	882	1	1533
3	584	153	1	936
3	585	707	1	1200
3	586	311	1	1022
3	587	908	1	10077
3	588	1192	-1	3212
3	589	328	1	8443
3	590	980	-1	2532
3	591	1139	1	15796
3	592	1066	1	11615
3	593	1084	1	1055
3	594	158	1	1822
3	595	333	1	791
3	596	154	1	883
3	597	517	-1	1076
3	598	89	-1	1265
3	599	490	-1	870
3	600	958	-1	914
3	601	81	-1	9759
3	602	692	-1	6595
3	603	1000	1	5936
3	604	587	1	1232
3	605	162	1	1297
3	606	1273	-1	1722
3	607	727	-1	1234
3	608	966	-1	1533
3	609	1348	-1	894
3	610	224	-1	973
3	611	215	-1	1474
3	612	1102	1	823
3	613	914	-1	759
3	614	455	-1	1997
3	615	133	-1	1332
3	616	1058	-1	1047
3	617	779	-1	833
3	618	621	-1	1760
3	619	1063	-1	3714
3	620	1246	1	2754
3	621	1146	-1	1401
3	622	204	-1	1071
3	623	180	-1	2042
3	624	52	1	3699
3	625	434	-1	906
3	626	1048	1	885
3	627	810	-1	870
3	628	932	1	952
3	629	720	-1	1227
3	630	940	1	1460
3	631	885	1	1402
3	632	82	1	609
3	633	1263	1	457
3	634	1363	-1	854
3	635	1284	1	946
3	636	25	-1	1272
3	637	1157	1	1320
3	638	31	1	1269
3	639	1371	1	1018
3	640	1049	-1	1311
3	641	983	1	5333
3	642	723	-1	1518
3	643	318	1	1403
3	644	168	-1	2075
3	645	530	1	1237
3	646	174	-1	1244
3	647	451	1	1483
3	648	870	-1	1351
3	649	322	1	1297
3	650	702	1	1060
3	651	1177	1	885
3	652	522	-1	1367
3	653	429	-1	1129
3	654	43	1	1668
3	655	1064	1	1381
3	656	1162	1	1413
3	657	1045	1	1178
3	658	879	1	5893
3	659	1122	1	924
3	660	608	1	1332
3	661	1379	1	1154
3	662	751	1	1020
3	663	533	1	1023
3	664	826	-1	1218
3	665	1152	-1	936
3	666	285	1	1349
3	667	414	1	1488
3	668	184	1	1163
3	669	634	1	911
3	670	374	1	1261
3	671	774	1	6091
3	672	91	-1	2509
3	673	704	-1	1153
3	674	1047	-1	1054
3	675	109	1	951
3	676	1298	1	1048
3	677	1124	-1	1244
3	678	393	1	1035
3	679	12	1	360
3	680	924	1	1259
3	681	866	1	888
3	682	146	-1	732
3	683	1256	-1	789
3	684	192	-1	848
3	685	1190	1	916
3	686	718	1	886
3	687	1034	1	1553
3	688	803	1	1391
3	689	309	-1	1046
3	690	688	-1	835
3	691	797	1	1002
3	692	596	-1	867
3	693	368	-1	866
3	694	534	1	373
3	695	493	-1	586
3	696	500	1	527
3	697	731	1	489
3	698	1228	1	1335
3	699	798	1	1055
3	700	1070	1	1404
3	701	48	-1	4558
3	702	1236	-1	664
3	703	1026	-1	863
3	704	563	-1	774
3	705	381	1	604
3	706	670	-1	626
3	707	1315	-1	832
3	708	1215	1	854
3	709	1027	-1	1216
3	710	410	-1	780
3	711	610	1	447
3	712	910	-1	517
3	713	878	1	500
3	714	850	1	901
3	715	397	1	845
3	716	1353	-1	500
3	717	749	1	651
3	718	1391	1	902
3	719	332	1	605
3	720	1160	1	740
3	721	212	1	1055
3	722	80	-1	585
3	723	1307	1	815
3	724	83	1	1668
3	725	411	-1	1405
3	726	937	1	690
3	727	258	-1	549
3	728	628	-1	1579
3	729	378	1	1323
3	730	391	-1	1232
3	731	1396	1	1064
3	732	714	1	6141
3	733	847	1	1111
3	734	736	1	1061
3	735	1039	-1	1232
3	736	820	-1	630
3	737	121	1	1015
3	738	312	-1	924
3	739	697	1	1137
3	740	1342	1	733
3	741	1267	-1	963
3	742	78	-1	781
3	743	1174	1	1020
3	744	1090	-1	618
3	745	176	1	621
3	746	1163	1	336
3	747	61	-1	339
3	748	780	-1	300
3	749	1140	1	282
3	750	272	-1	203
3	751	1175	1	84
3	752	585	-1	178
3	753	653	-1	185
3	754	187	-1	153
3	755	1074	1	77
3	756	422	1	228
3	757	361	1	203
3	758	117	-1	179
3	759	788	1	1533
3	760	220	1	973
3	761	1024	1	878
3	762	775	-1	1620
3	763	583	1	725
3	764	147	1	866
3	765	468	-1	862
3	766	1149	-1	504
3	767	592	1	504
3	768	32	1	488
3	769	270	1	608
3	770	638	-1	453
3	771	1231	1	408
3	772	787	1	1111
3	773	90	-1	828
3	774	456	1	1033
3	775	828	-1	3342
3	776	4	1	1321
3	777	435	-1	895
3	778	113	-1	1006
3	779	1081	1	887
3	780	889	1	1189
3	781	864	-1	1015
3	782	395	-1	1536
3	783	1262	1	978
3	784	1151	-1	779
3	785	650	1	1241
3	786	708	-1	1400
3	787	275	-1	1833
3	788	647	-1	899
3	789	620	-1	1334
3	790	128	1	1370
3	791	754	1	923
3	792	1211	1	915
3	793	784	1	986
3	794	770	-1	1038
3	795	700	1	548
3	796	557	-1	360
3	797	705	1	417
3	798	183	1	306
3	799	581	-1	332
3	800	1255	-1	203
3	801	1031	1	5086
3	802	340	1	793
3	803	950	-1	845
3	804	740	1	1022
3	805	1062	-1	70013
3	806	325	-1	271
3	807	571	1	1234
3	808	409	-1	786
3	809	602	1	764
3	810	1105	1	773
3	811	546	-1	904
3	812	657	1	688
3	813	513	-1	886
3	814	892	1	1834
3	815	1276	-1	3436
3	816	535	-1	1047
3	817	1311	-1	791
3	818	255	-1	1255
3	819	716	1	747
3	820	861	-1	1023
3	821	1251	1	15806
3	822	314	-1	15989
3	823	1377	-1	3423
3	824	1050	1	1253
3	825	606	1	875
3	826	528	1	1463
3	827	1333	1	954
3	828	1308	-1	1037
3	829	876	1	841
3	830	161	-1	1719
3	831	229	1	1887
3	832	990	1	904
3	833	1209	-1	1145
3	834	1264	-1	1246
3	835	24	1	5870
3	836	1347	1	6974
3	837	337	1	1081
3	838	353	-1	1223
3	839	141	1	1078
3	840	1083	1	1063
3	841	881	-1	1834
3	842	122	1	1889
3	843	1037	1	1414
3	844	101	1	937
3	845	356	1	1344
3	846	947	1	1127
3	847	637	1	867
3	848	1260	-1	641
3	849	218	-1	847
3	850	899	-1	1473
3	851	891	1	4546
3	852	640	-1	1524
3	853	1360	-1	1383
3	854	667	1	1649
3	855	1082	1	1175
3	856	1129	1	1398
3	857	874	1	805
3	858	977	-1	1089
3	859	582	1	1423
3	860	1295	-1	1140
3	861	253	-1	838
3	862	1128	1	862
3	863	646	-1	970
3	864	471	-1	1087
3	865	65	-1	1349
3	866	370	-1	1436
3	867	804	-1	888
3	868	856	-1	912
3	869	531	1	750
3	870	1032	-1	769
3	871	66	-1	801
3	872	47	-1	1923
3	873	1041	-1	1314
3	874	200	-1	2002
3	875	477	1	1347
3	876	743	1	1158
3	877	498	-1	1323
3	878	443	-1	1191
3	879	327	-1	1142
3	880	102	1	2994
3	881	266	-1	1202
3	882	1299	1	956
3	883	635	-1	1560
3	884	802	1	6811
3	885	758	-1	723
3	886	741	-1	1779
3	887	291	-1	1277
3	888	684	-1	1609
3	889	544	1	1346
3	890	1364	-1	2041
3	891	970	1	990
3	892	143	1	1704
3	893	360	1	1985
3	894	851	-1	874
3	895	439	-1	621
3	896	1254	1	631
3	897	631	-1	605
3	898	576	1	734
3	899	1309	1	705
3	900	792	-1	967
3	901	484	1	6415
3	902	269	1	1881
3	903	845	1	1197
3	904	298	-1	785
3	905	338	-1	735
3	906	299	1	624
3	907	1386	-1	604
3	908	1161	-1	823
3	909	406	1	700
3	910	344	1	963
3	911	420	-1	791
3	912	1359	1	923
3	913	703	-1	1338
3	914	951	-1	1071
3	915	68	1	1044
3	916	772	-1	1256
3	917	185	-1	1231
3	918	1056	1	1069
3	919	1296	1	1203
3	920	764	-1	1350
3	921	283	1	970
3	922	985	-1	1221
3	923	222	-1	1087
3	924	674	-1	1298
3	925	796	-1	1282
3	926	225	-1	1707
3	927	918	1	967
3	928	144	-1	939
3	929	21	1	1693
3	930	615	-1	1357
3	931	1099	-1	1056
3	932	1221	-1	850
3	933	855	-1	185
3	934	465	-1	925
3	935	1130	1	706
3	936	1085	-1	759
3	937	1332	1	1135
3	938	807	-1	1354
3	939	506	-1	1331
3	940	554	1	948
3	941	1297	-1	885
3	942	445	1	970
3	943	519	1	1081
3	944	936	-1	1170
3	945	1343	1	1137
3	946	543	-1	1062
3	947	1065	-1	835
3	948	909	-1	1347
3	949	941	-1	1443
3	950	661	1	920
3	951	961	-1	890
3	952	954	-1	2469
3	953	666	1	916
3	954	982	1	801
3	955	1392	-1	885
3	956	514	1	787
3	957	57	-1	1044
3	958	1166	-1	1415
3	959	56	1	6325
3	960	491	1	1605
3	961	762	1	1423
3	962	457	-1	1048
3	963	790	-1	1029
3	964	859	-1	992
3	965	609	-1	957
3	966	1155	1	822
3	967	1078	-1	1049
3	968	400	1	1455
3	969	625	-1	1046
3	970	995	-1	904
3	971	1389	1	930
3	972	511	-1	1207
3	973	509	-1	925
3	974	526	-1	1035
3	975	1057	-1	1089
3	976	501	-1	1153
3	977	713	-1	1044
3	978	1012	-1	2180
3	979	771	-1	1773
3	980	1350	-1	1241
3	981	1080	-1	873
3	982	440	1	1308
3	983	884	1	954
3	984	300	-1	874
3	985	1376	1	1261
3	986	1313	-1	1294
3	987	648	-1	1328
3	988	1002	1	785
3	989	1044	-1	755
3	990	106	-1	1395
3	991	54	1	1028
3	992	902	-1	617
3	993	1226	-1	585
3	994	23	-1	1105
3	995	601	-1	652
3	996	1351	1	1135
3	997	1118	-1	2279
3	998	349	1	1026
3	999	760	1	1106
3	1000	567	1	2345
3	1001	578	-1	5664
3	1002	793	1	632
3	1003	367	-1	1041
3	1004	373	1	812
3	1005	99	-1	1186
3	1006	1036	-1	955
3	1007	681	1	732
3	1008	763	-1	540
3	1009	1033	-1	577
3	1010	981	-1	671
3	1011	1372	1	664
3	1012	97	1	662
3	1013	1029	1	664
3	1014	623	1	764
3	1015	960	-1	820
3	1016	794	1	1218
3	1017	923	-1	913
3	1018	1382	-1	994
3	1019	1103	-1	1289
3	1020	437	-1	959
3	1021	777	-1	1579
3	1022	1247	1	1042
3	1023	241	-1	938
3	1024	289	1	632
3	1025	568	1	584
3	1026	3	-1	547
3	1027	586	1	417
3	1028	67	1	385
3	1029	1213	-1	262
3	1030	986	-1	201
3	1031	284	-1	163
3	1032	690	1	55
3	1033	1154	1	172
3	1034	479	1	168
3	1035	1326	-1	60
3	1036	1259	1	178
3	1037	145	-1	131
3	1038	598	1	163
3	1039	364	-1	184
3	1040	1061	-1	154
3	1041	505	1	1204
3	1042	1059	-1	615
3	1043	1006	1	800
3	1044	1138	-1	659
3	1045	308	-1	373
3	1046	1202	1	394
3	1047	1	1	268
3	1048	389	-1	414
3	1049	502	1	822
3	1050	198	1	776
3	1051	665	-1	724
3	1052	617	1	885
3	1053	1234	-1	742
3	1054	651	-1	690
3	1055	44	-1	725
3	1056	363	-1	786
3	1057	157	1	637
3	1058	572	1	751
3	1059	1397	-1	629
3	1060	536	1	725
3	1061	462	-1	741
3	1062	559	-1	960
3	1063	346	-1	1308
3	1064	11	-1	706
3	1065	842	-1	792
3	1066	734	-1	786
3	1067	243	1	1140
3	1068	156	1	3322
3	1069	1165	-1	786
3	1070	447	-1	873
3	1071	28	-1	1190
3	1072	549	1	519
3	1073	778	-1	418
3	1074	632	1	473
3	1075	172	-1	421
3	1076	467	-1	390
3	1077	795	1	331
3	1078	1109	-1	389
3	1079	1038	1	401
3	1080	481	-1	452
3	1081	871	-1	406
3	1082	376	1	258
3	1083	860	-1	388
3	1084	292	1	303
3	1085	867	1	263
3	1086	382	1	888
3	1087	1291	-1	654
3	1088	70	-1	652
3	1089	1310	1	522
3	1090	92	-1	710
3	1091	1253	-1	792
3	1092	470	-1	782
3	1093	321	-1	718
3	1094	1357	-1	815
3	1095	1108	1	637
3	1096	313	-1	642
3	1097	1230	-1	824
3	1098	1013	1	1038
3	1099	645	-1	795
3	1100	320	1	710
3	1101	1171	1	12454
3	1102	401	-1	736
3	1103	5	-1	607
3	1104	73	-1	679
3	1105	726	-1	731
3	1106	492	1	606
3	1107	685	-1	479
3	1108	843	1	521
3	1109	280	-1	551
3	1110	725	-1	649
3	1111	288	-1	506
3	1112	426	-1	568
3	1113	1217	1	508
3	1114	975	-1	521
3	1115	931	-1	638
3	1116	1107	-1	601
3	1117	852	-1	601
3	1118	1354	1	754
3	1119	1153	-1	511
3	1120	805	1	696
3	1121	1282	-1	800
3	1122	2	-1	1088
3	1123	967	1	986
3	1124	1125	-1	867
3	1125	979	-1	893
3	1126	425	1	459
3	1127	930	-1	522
3	1128	785	-1	524
3	1129	244	-1	522
3	1130	1271	1	840
3	1131	1206	-1	965
3	1132	282	-1	588
3	1133	933	1	580
3	1134	644	-1	534
3	1135	1216	-1	995
3	1136	432	-1	1228
3	1137	561	1	1028
3	1138	747	-1	1062
3	1139	8	-1	975
3	1140	472	-1	731
3	1141	997	-1	737
3	1142	211	-1	782
3	1143	1227	1	789
3	1144	405	1	820
3	1145	1381	1	809
3	1146	594	-1	1153
3	1147	1293	-1	1256
3	1148	1123	-1	1128
3	1149	199	-1	1078
3	1150	1388	-1	116
3	1151	1135	1	1125
3	1152	1240	-1	485
3	1153	613	-1	586
3	1154	239	1	416
3	1155	124	-1	416
3	1156	166	1	472
3	1157	1179	1	516
3	1158	1346	-1	549
3	1159	1183	-1	746
3	1160	116	1	780
3	1161	1077	1	1045
3	1162	911	-1	2060
3	1163	757	-1	619
3	1164	1280	-1	836
3	1165	416	-1	665
3	1166	529	-1	979
3	1167	1172	-1	637
3	1168	1167	-1	682
3	1169	177	1	1208
3	1170	1016	-1	587
3	1171	682	-1	592
3	1172	1257	-1	589
3	1173	103	1	332
3	1174	1207	-1	338
3	1175	649	1	469
3	1176	715	-1	441
3	1177	71	-1	949
3	1178	38	1	695
3	1179	998	-1	456
3	1180	926	-1	363
3	1181	675	1	437
3	1182	811	1	533
3	1183	36	-1	447
3	1184	431	1	685
3	1185	1121	-1	653
3	1186	673	1	566
3	1187	1075	-1	609
3	1188	93	1	447
3	1189	1185	-1	529
3	1190	1060	-1	728
3	1191	1104	-1	573
3	1192	460	-1	734
3	1193	626	-1	662
3	1194	232	-1	712
3	1195	629	1	805
3	1196	268	-1	1113
3	1197	938	1	1025
3	1198	169	-1	944
3	1199	1320	-1	390
3	1200	745	1	524
3	1201	748	1	6940
3	1202	1292	-1	549
3	1203	739	-1	604
3	1204	781	1	536
3	1205	949	1	631
3	1206	952	-1	539
3	1207	1011	-1	1200
3	1208	566	-1	695
3	1209	905	1	664
3	1210	385	1	571
3	1211	100	1	501
3	1212	570	-1	532
3	1213	897	-1	623
3	1214	894	-1	729
3	1215	1238	1	1044
3	1216	835	1	841
3	1217	417	-1	903
3	1218	279	1	700
3	1219	30	-1	585
3	1220	1329	-1	553
3	1221	524	1	363
3	1222	912	1	1038
3	1223	1089	1	786
3	1224	1007	-1	585
3	1225	1088	-1	1046
3	1226	593	-1	556
3	1227	1330	1	920
3	1228	1136	-1	771
3	1229	1195	1	908
3	1230	927	1	734
3	1231	922	-1	829
3	1232	1086	-1	1035
3	1233	683	-1	690
3	1234	365	1	363
3	1235	946	-1	354
3	1236	442	-1	323
3	1237	516	1	303
3	1238	427	1	318
3	1239	1097	-1	78
3	1240	662	-1	224
3	1241	264	1	250
3	1242	290	-1	188
3	1243	142	-1	473
3	1244	1322	1	406
3	1245	1141	1	661
3	1246	259	1	623
3	1247	59	-1	519
3	1248	412	-1	640
3	1249	190	-1	1042
3	1250	1173	-1	912
3	1251	600	-1	1349
3	1252	316	-1	1255
3	1253	315	1	1144
3	1254	151	-1	1173
3	1255	1100	1	969
3	1256	369	-1	739
3	1257	1274	-1	603
3	1258	1020	-1	708
3	1259	1186	-1	1119
3	1260	1218	1	674
3	1261	53	-1	1640
3	1262	135	-1	1087
3	1263	987	1	866
3	1264	1096	1	1506
3	1265	627	1	1109
3	1266	39	-1	1399
3	1267	599	1	1218
3	1268	193	1	1299
3	1269	1158	1	1122
3	1270	639	-1	1096
3	1271	1176	1	1219
3	1272	495	1	1255
3	1273	579	-1	1257
3	1274	246	-1	690
3	1275	63	-1	807
3	1276	679	-1	1210
3	1277	858	-1	1363
3	1278	1352	1	1336
3	1279	29	-1	714
3	1280	293	1	434
3	1281	79	-1	354
3	1282	1304	-1	301
3	1283	672	1	222
3	1284	761	1	285
3	1285	19	-1	253
3	1286	74	1	307
3	1287	170	-1	411
3	1288	1239	1	352
3	1289	1323	-1	426
3	1290	729	-1	598
3	1291	1187	-1	723
3	1292	913	-1	839
3	1293	237	-1	1229
3	1294	1051	-1	1121
3	1295	186	1	791
3	1296	968	1	1132
3	1297	696	1	1348
3	1298	1022	1	1244
3	1299	1113	1	1056
3	1300	1182	1	1357
3	1301	973	-1	7119
3	1302	203	1	1056
3	1303	1361	-1	933
3	1304	969	-1	1085
3	1305	127	-1	835
3	1306	1300	1	831
3	1307	226	-1	773
3	1308	1143	-1	1159
3	1309	390	-1	1032
3	1310	1375	1	946
3	1311	813	-1	935
3	1312	759	-1	976
3	1313	335	1	1181
3	1314	329	1	1321
3	1315	1356	1	964
3	1316	733	1	1641
3	1317	532	-1	964
3	1318	1147	-1	791
3	1319	386	-1	1006
3	1320	920	-1	862
3	1321	934	1	1337
3	1322	413	-1	817
3	1323	935	1	992
3	1324	1224	1	1057
3	1325	1014	1	1127
3	1326	1283	1	1093
3	1327	1005	-1	1188
3	1328	677	1	1210
3	1329	1367	-1	1565
3	1330	46	-1	1287
3	1331	1370	-1	1054
3	1332	1214	-1	1232
3	1333	108	1	1541
3	1334	1281	-1	1224
3	1335	819	1	1249
3	1336	605	1	1986
3	1337	875	-1	1209
3	1338	235	-1	636
3	1339	331	1	881
3	1340	642	1	1068
3	1341	809	1	1834
3	1342	943	-1	1846
3	1343	989	-1	940
3	1344	556	1	490
3	1345	550	-1	546
3	1346	134	-1	631
3	1347	1079	1	751
3	1348	738	1	726
3	1349	919	1	852
3	1350	503	-1	1146
3	1351	630	-1	3223
3	1352	277	-1	688
3	1353	1145	1	1049
3	1354	271	1	951
3	1355	345	-1	492
3	1356	815	1	401
3	1357	1021	-1	570
3	1358	591	1	297
3	1359	1001	1	235
3	1360	164	-1	269
3	1361	1305	-1	216
3	1362	27	1	232
3	1363	209	-1	370
3	1364	1008	1	366
3	1365	115	1	643
3	1366	1327	1	685
3	1367	339	-1	743
3	1368	1114	1	995
3	1369	415	1	1328
3	1370	1235	1	989
3	1371	607	1	984
3	1372	687	1	975
3	1373	1112	-1	778
3	1374	302	-1	712
3	1375	33	-1	954
3	1376	152	-1	690
3	1377	450	-1	1361
3	1378	238	-1	1255
3	1379	40	-1	933
3	1380	518	1	1003
3	1381	839	-1	769
3	1382	1225	-1	2123
3	1383	227	-1	669
3	1384	693	-1	806
3	1385	834	-1	688
3	1386	584	-1	918
3	1387	1200	-1	649
3	1388	551	1	1327
3	1389	1270	-1	1065
3	1390	829	1	1031
3	1391	710	1	891
3	1392	441	-1	832
3	1393	1180	-1	822
3	1394	85	-1	665
3	1395	558	-1	1100
3	1396	120	-1	1019
3	1397	208	1	963
3	1398	461	-1	1200
3	1399	1040	-1	1304
3	1400	380	-1	957
4	1	632	-1	4430
4	2	95	-1	1489
4	3	838	1	1594
4	4	1217	-1	1593
4	5	925	1	2177
4	6	1052	-1	1896
4	7	591	1	1054
4	8	549	-1	1238
4	9	385	1	1711
4	10	111	1	2847
4	11	693	1	1182
4	12	367	1	2204
4	13	1243	1	1406
4	14	279	1	1517
4	15	1075	-1	3642
4	16	1260	-1	1713
4	17	1245	1	1411
4	18	1018	1	2256
4	19	794	1	1194
4	20	420	1	1320
4	21	1242	1	1267
4	22	191	-1	2099
4	23	386	-1	2376
4	24	82	1	1426
4	25	72	1	2135
4	26	232	-1	7839
4	27	1097	-1	2263
4	28	406	1	2222
4	29	755	-1	1444
4	30	840	1	1936
4	31	766	-1	1450
4	32	479	-1	1372
4	33	296	1	910
4	34	96	-1	1566
4	35	1220	1	1183
4	36	1249	1	1647
4	37	165	1	1591
4	38	498	1	2458
4	39	1286	-1	1414
4	40	530	1	1361
4	41	492	1	2207
4	42	196	-1	1892
4	43	1192	1	3338
4	44	813	1	3409
4	45	626	1	1781
4	46	85	-1	1317
4	47	1293	-1	3021
4	48	124	-1	3322
4	49	959	-1	1202
4	50	314	-1	1225
4	51	1366	1	1819
4	52	1222	1	4363
4	53	1085	1	4022
4	54	65	1	1568
4	55	210	1	3050
4	56	1281	1	4253
4	57	720	-1	4960
4	58	1109	-1	4051
4	59	745	1	2609
4	60	422	1	2150
4	61	1272	-1	2221
4	62	554	-1	2503
4	63	243	-1	6293
4	64	182	1	9343
4	65	282	-1	1552
4	66	1282	-1	4177
4	67	1349	-1	196
4	68	630	1	2812
4	69	949	-1	1161
4	70	441	-1	1247
4	71	837	1	1464
4	72	1178	-1	1003
4	73	1056	-1	1491
4	74	120	-1	1631
4	75	612	-1	1519
4	76	1201	1	1402
4	77	1359	1	1601
4	78	1062	-1	1079
4	79	77	-1	1722
4	80	484	-1	1750
4	81	1309	1	1176
4	82	433	1	855
4	83	844	-1	1027
4	84	789	-1	2028
4	85	526	-1	1526
4	86	594	1	1344
4	87	222	1	2228
4	88	295	-1	1282
4	89	905	1	1260
4	90	718	-1	1172
4	91	157	-1	1970
4	92	1036	-1	1406
4	93	1230	-1	1613
4	94	1115	-1	4646
4	95	1273	1	1541
4	96	958	-1	3840
4	97	88	-1	7646
4	98	1361	1	1789
4	99	1374	-1	1544
4	100	324	-1	1647
4	101	359	1	2201
4	102	156	1	1027
4	103	574	1	2111
4	104	778	1	2066
4	105	1396	1	1561
4	106	1040	1	9046
4	107	286	1	1472
4	108	1289	1	2261
4	109	98	-1	1017
4	110	1038	1	1439
4	111	1188	1	1725
4	112	1083	1	2391
4	113	1270	-1	1308
4	114	125	-1	1969
4	115	419	1	1324
4	116	318	-1	1326
4	117	1054	-1	1193
4	118	147	-1	1301
4	119	270	1	1362
4	120	431	-1	1478
4	121	706	-1	1562
4	122	320	1	3596
4	123	49	-1	2643
4	124	637	1	1379
4	125	1189	-1	1890
4	126	570	1	1838
4	127	1214	-1	3125
4	128	91	1	9106
4	129	611	1	3227
4	130	972	1	1013
4	131	1180	1	3420
4	132	1236	1	2357
4	133	858	1	1188
4	134	982	1	1124
4	135	534	-1	1262
4	136	914	-1	3861
4	137	235	1	1756
4	138	986	1	1694
4	139	1390	1	1240
4	140	332	-1	1171
4	141	1030	1	1352
4	142	1399	1	1239
4	143	515	1	5529
4	144	12	1	1007
4	145	658	1	2100
4	146	1093	1	1479
4	147	471	1	5060
4	148	223	1	1181
4	149	1340	-1	1395
4	150	19	1	3110
4	151	559	-1	1215
4	152	1269	1	1990
4	153	1013	1	1068
4	154	476	1	1164
4	155	1291	-1	1368
4	156	1375	1	1249
4	157	1196	-1	1884
4	158	952	1	1861
4	159	25	1	1367
4	160	1354	1	1056
4	161	485	1	2868
4	162	859	1	1094
4	163	1092	1	1332
4	164	1202	1	975
4	165	337	-1	1315
4	166	1055	1	869
4	167	371	-1	858
4	168	881	1	1256
4	169	179	1	1148
4	170	587	-1	823
4	171	1002	-1	1517
4	172	112	-1	2109
4	173	962	1	1121
4	174	3	-1	1089
4	175	138	1	886
4	176	275	1	860
4	177	1335	1	824
4	178	957	-1	849
4	179	937	-1	1533
4	180	1120	1	1048
4	181	257	-1	1425
4	182	1394	-1	2287
4	183	301	-1	1638
4	184	1077	1	1348
4	185	1068	1	1731
4	186	216	1	1552
4	187	696	1	1128
4	188	149	1	2425
4	189	1341	-1	1304
4	190	421	1	1061
4	191	1252	-1	2704
4	192	227	1	1016
4	193	477	1	843
4	194	980	1	1568
4	195	26	1	1617
4	196	1271	1	1132
4	197	921	1	1093
4	198	294	-1	1295
4	199	212	-1	1111
4	200	1045	1	1036
4	201	746	1	434
4	202	1136	-1	2806
4	203	1058	-1	1225
4	204	326	-1	1297
4	205	945	-1	989
4	206	666	-1	1443
4	207	890	-1	1670
4	208	1012	1	3893
4	209	263	-1	1974
4	210	646	-1	1428
4	211	678	-1	1745
4	212	879	-1	8483
4	213	552	-1	1699
4	214	1103	-1	1633
4	215	995	1	2261
4	216	628	1	1633
4	217	597	-1	4062
4	218	1184	-1	2526
4	219	162	1	2132
4	220	273	-1	1645
4	221	115	-1	1330
4	222	204	1	2746
4	223	1022	1	4222
4	224	827	-1	1102
4	225	1047	-1	1180
4	226	343	-1	1410
4	227	1376	-1	3979
4	228	76	1	1133
4	229	1353	1	1185
4	230	164	-1	1092
4	231	460	1	3631
4	232	897	-1	1062
4	233	563	-1	1213
4	234	1279	1	1265
4	235	2	-1	1395
4	236	1324	-1	1344
4	237	1139	1	1925
4	238	941	1	1752
4	239	748	-1	3039
4	240	183	1	1356
4	241	1182	1	1268
4	242	981	-1	6845
4	243	659	1	2036
4	244	105	1	1393
4	245	883	1	1202
4	246	374	1	1018
4	247	1285	1	1117
4	248	983	1	7826
4	249	1208	1	1033
4	250	453	1	1463
4	251	1287	1	1386
4	252	866	1	1364
4	253	68	1	1642
4	254	900	1	1608
4	255	225	1	2710
4	256	960	-1	1040
4	257	198	1	3864
4	258	236	-1	1200
4	259	801	-1	1118
4	260	59	1	1170
4	261	178	-1	844
4	262	369	1	951
4	263	1129	1	1303
4	264	373	1	730
4	265	1032	1	2479
4	266	893	1	2764
4	267	1141	1	9581
4	268	122	1	1145
4	269	512	-1	1882
4	270	456	1	1164
4	271	800	-1	2310
4	272	629	1	1160
4	273	876	1	1947
4	274	430	1	1040
4	275	368	1	1098
4	276	829	-1	884
4	277	853	1	4629
4	278	810	-1	1434
4	279	289	-1	1592
4	280	323	-1	2835
4	281	985	-1	1275
4	282	580	-1	4205
4	283	1377	1	3231
4	284	690	1	1689
4	285	871	1	2709
4	286	705	1	2005
4	287	1393	-1	1614
4	288	1135	-1	1890
4	289	1356	1	1288
4	290	127	-1	3435
4	291	544	-1	921
4	292	103	-1	3954
4	293	733	-1	1245
4	294	1290	-1	1310
4	295	823	1	1029
4	296	909	1	787
4	297	822	-1	815
4	298	931	1	1214
4	299	1308	-1	1073
4	300	237	-1	998
4	301	448	-1	7345
4	302	1319	1	967
4	303	631	1	1020
4	304	1067	1	840
4	305	348	1	1186
4	306	20	1	4570
4	307	480	1	1137
4	308	1043	1	2824
4	309	1327	1	3461
4	310	1303	-1	1573
4	311	770	-1	1203
4	312	451	1	955
4	313	434	-1	1099
4	314	1175	-1	3600
4	315	1177	-1	1382
4	316	121	1	3797
4	317	253	-1	597
4	318	400	1	535
4	319	1307	-1	587
4	320	603	-1	6347
4	321	1317	-1	947
4	322	457	1	1027
4	323	1365	-1	1167
4	324	1348	-1	956
4	325	57	1	1281
4	326	783	-1	898
4	327	1297	-1	1007
4	328	715	1	1185
4	329	1221	-1	961
4	330	126	-1	1293
4	331	536	-1	934
4	332	999	1	893
4	333	899	1	1276
4	334	458	1	2359
4	335	352	1	845
4	336	144	-1	896
4	337	582	1	889
4	338	967	1	855
4	339	540	1	976
4	340	90	1	1025
4	341	99	1	1250
4	342	442	-1	1463
4	343	341	1	5279
4	344	1333	1	1232
4	345	638	1	3555
4	346	878	1	376
4	347	648	-1	1090
4	348	1369	1	868
4	349	938	1	984
4	350	1211	1	884
4	351	505	1	2643
4	352	1079	-1	1466
4	353	395	1	1033
4	354	357	1	1483
4	355	651	1	880
4	356	868	-1	1117
4	357	258	1	1333
4	358	653	1	1291
4	359	742	-1	1011
4	360	635	1	1295
4	361	474	-1	1853
4	362	917	1	2739
4	363	1087	-1	1916
4	364	429	-1	1845
4	365	685	1	1371
4	366	366	-1	975
4	367	873	-1	1256
4	368	488	1	807
4	369	281	1	882
4	370	1173	-1	960
4	371	466	1	1556
4	372	1133	-1	863
4	373	676	-1	1882
4	374	185	1	888
4	375	711	1	1127
4	376	740	-1	14815
4	377	989	1	5482
4	378	757	-1	1192
4	379	593	1	1245
4	380	490	1	1204
4	381	802	1	909
4	382	207	1	721
4	383	1264	-1	1003
4	384	545	-1	1931
4	385	1111	1	5580
4	386	934	-1	5475
4	387	998	1	882
4	388	174	1	1180
4	389	233	-1	1843
4	390	726	-1	1036
4	391	724	1	884
4	392	1296	-1	2710
4	393	154	1	913
4	394	190	-1	805
4	395	1197	1	855
4	396	609	-1	750
4	397	541	1	858
4	398	887	1	881
4	399	1014	-1	863
4	400	508	-1	792
4	401	186	-1	2147
4	402	946	-1	1154
4	403	697	-1	1095
4	404	988	-1	980
4	405	1046	1	794
4	406	1328	1	939
4	407	575	-1	1552
4	408	66	1	1029
4	409	606	-1	1513
4	410	1157	1	1178
4	411	621	1	881
4	412	62	1	1626
4	413	774	1	967
4	414	414	-1	1133
4	415	560	-1	1001
4	416	1138	-1	1074
4	417	1066	-1	1222
4	418	1099	-1	1947
4	419	1118	-1	915
4	420	1165	-1	1121
4	421	74	-1	1047
4	422	974	1	1077
4	423	187	-1	1296
4	424	1149	-1	1147
4	425	1023	1	973
4	426	579	-1	844
4	427	56	1	1041
4	428	1140	1	855
4	429	679	-1	1345
4	430	864	-1	1281
4	431	602	-1	1284
4	432	150	-1	1187
4	433	145	-1	973
4	434	381	-1	1036
4	435	712	-1	806
4	436	947	-1	2932
4	437	1160	1	842
4	438	221	-1	1037
4	439	184	-1	2512
4	440	1169	1	851
4	441	1318	1	926
4	442	588	1	793
4	443	830	-1	736
4	444	735	1	700
4	445	665	1	992
4	446	513	1	1007
4	447	195	1	1483
4	448	1027	1	1145
4	449	405	-1	1116
4	450	316	-1	1163
4	451	1226	-1	2489
4	452	94	-1	771
4	453	171	-1	4286
4	454	495	-1	796
4	455	516	1	892
4	456	242	-1	1055
4	457	562	-1	7413
4	458	805	1	939
4	459	625	1	954
4	460	721	-1	1049
4	461	1003	1	899
4	462	553	1	1062
4	463	901	1	1123
4	464	220	1	1069
4	465	411	1	2235
4	466	922	-1	894
4	467	218	1	764
4	468	1389	-1	752
4	469	1385	1	618
4	470	976	-1	873
4	471	188	-1	1190
4	472	777	1	1080
4	473	1073	1	1349
4	474	1076	1	991
4	475	623	1	978
4	476	30	-1	936
4	477	107	-1	997
4	478	351	-1	784
4	479	370	-1	1099
4	480	102	1	959
4	481	809	-1	855
4	482	468	-1	1401
4	483	1241	1	1022
4	484	671	1	1469
4	485	388	1	1383
4	486	189	-1	1157
4	487	1049	1	1236
4	488	262	-1	1835
4	489	55	1	1239
4	490	199	1	1845
4	491	194	-1	1177
4	492	1104	1	1103
4	493	450	-1	912
4	494	896	1	957
4	495	542	1	1836
4	496	589	1	1339
4	497	581	1	1178
4	498	717	-1	1031
4	499	290	1	1242
4	500	1258	-1	946
4	501	16	1	2085
4	502	1063	-1	1155
4	503	842	1	745
4	504	97	1	1151
4	505	660	-1	1234
4	506	33	1	1128
4	507	14	1	1380
4	508	971	1	2804
4	509	1277	-1	1076
4	510	714	1	906
4	511	953	1	1126
4	512	393	-1	798
4	513	1106	1	2480
4	514	252	1	1289
4	515	731	1	992
4	516	727	1	1097
4	517	1225	1	753
4	518	997	1	758
4	519	166	1	1133
4	520	39	-1	3777
4	521	41	-1	1316
4	522	950	-1	2058
4	523	546	-1	900
4	524	779	-1	1370
4	525	363	-1	1765
4	526	322	-1	1712
4	527	1316	-1	933
4	528	1378	1	1025
4	529	378	1	856
4	530	915	-1	935
4	531	214	1	3131
4	532	543	-1	3422
4	533	305	-1	1025
4	534	816	-1	1024
4	535	1223	-1	1148
4	536	551	1	1204
4	537	641	-1	757
4	538	1080	-1	5628
4	539	234	1	829
4	540	843	-1	799
4	541	23	-1	12178
4	542	17	-1	790
4	543	764	-1	5307
4	544	571	-1	877
4	545	1193	-1	1094
4	546	895	-1	2425
4	547	1284	-1	815
4	548	1126	1	6900
4	549	911	1	756
4	550	245	-1	860
4	551	1276	1	4358
4	552	353	1	952
4	553	1071	-1	7295
4	554	1263	-1	817
4	555	675	-1	793
4	556	1095	1	883
4	557	256	-1	752
4	558	128	1	659
4	559	987	1	810
4	560	1371	-1	675
4	561	657	1	685
4	562	58	-1	820
4	563	392	1	670
4	564	60	-1	832
4	565	689	1	1222
4	566	1031	1	4307
4	567	535	-1	944
4	568	349	-1	875
4	569	1358	1	2814
4	570	835	-1	1133
4	571	254	-1	15266
4	572	586	-1	1402
4	573	1235	1	2182
4	574	769	1	1508
4	575	761	-1	1226
4	576	978	-1	276
4	577	219	1	1039
4	578	888	-1	918
4	579	32	-1	940
4	580	797	1	2505
4	581	417	-1	884
4	582	716	1	1077
4	583	383	-1	2310
4	584	181	-1	6050
4	585	4	-1	7836
4	586	24	-1	1136
4	587	278	-1	819
4	588	304	-1	919
4	589	387	-1	986
4	590	1256	-1	1962
4	591	656	-1	7837
4	592	143	-1	1397
4	593	730	-1	4270
4	594	1057	-1	1384
4	595	238	-1	6054
4	596	739	1	1058
4	597	751	1	1048
4	598	772	1	987
4	599	117	1	988
4	600	1232	1	1362
4	601	1021	-1	1716
4	602	1174	-1	1116
4	603	135	1	972
4	604	1339	1	2191
4	605	1131	1	1072
4	606	1322	1	1904
4	607	342	1	925
4	608	470	-1	1404
4	609	1198	-1	1244
4	610	396	-1	1027
4	611	1212	-1	2329
4	612	948	-1	1205
4	613	892	1	1665
4	614	35	1	955
4	615	799	1	833
4	616	662	1	911
4	617	355	-1	1780
4	618	1239	1	1021
4	619	787	1	1049
4	620	765	-1	1232
4	621	1112	-1	1067
4	622	558	1	2455
4	623	1088	1	1083
4	624	768	-1	6541
4	625	299	1	1710
4	626	251	1	819
4	627	708	1	4133
4	628	1346	1	1011
4	629	963	-1	891
4	630	877	-1	860
4	631	1355	-1	866
4	632	1078	-1	3733
4	633	298	-1	940
4	634	5	1	899
4	635	1019	-1	44612
4	636	1008	-1	1080
4	637	319	-1	6047
4	638	1064	-1	824
4	639	444	-1	1139
4	640	255	-1	1311
4	641	483	-1	2477
4	642	1323	-1	2937
4	643	274	-1	889
4	644	1295	-1	851
4	645	1004	-1	7961
4	646	928	-1	979
4	647	1151	-1	952
4	648	426	-1	888
4	649	1213	-1	822
4	650	380	-1	1993
4	651	1265	1	965
4	652	994	-1	808
4	653	1320	-1	957
4	654	811	-1	3655
4	655	1330	1	1038
4	656	333	1	975
4	657	729	-1	945
4	658	1367	-1	923
4	659	848	-1	1123
4	660	503	-1	959
4	661	913	-1	3241
4	662	175	1	3549
4	663	155	-1	866
4	664	610	-1	814
4	665	1187	-1	963
4	666	1248	-1	777
4	667	418	-1	3048
4	668	284	-1	2437
4	669	339	-1	825
4	670	1257	-1	1274
4	671	633	-1	1196
4	672	461	-1	817
4	673	1069	-1	1392
4	674	923	-1	947
4	675	1205	-1	968
4	676	465	-1	759
4	677	1200	-1	3020
4	678	1137	-1	1066
4	679	1050	-1	1264
4	680	993	1	1263
4	681	1059	-1	946
4	682	100	-1	852
4	683	1251	1	895
4	684	754	-1	1789
4	685	197	-1	838
4	686	1298	1	921
4	687	1185	-1	900
4	688	116	-1	1520
4	689	1397	1	1122
4	690	1231	-1	1169
4	691	408	1	960
4	692	129	-1	890
4	693	686	1	818
4	694	1310	-1	1683
4	695	645	-1	978
4	696	1034	1	988
4	697	1379	1	1200
4	698	1234	1	1251
4	699	663	1	1192
4	700	510	1	2577
4	701	583	1	931
4	702	331	-1	832
4	703	1345	1	710
4	704	1275	1	809
4	705	683	-1	954
4	706	965	1	911
4	707	1051	1	765
4	708	723	-1	1124
4	709	886	1	778
4	710	1053	-1	848
4	711	790	1	925
4	712	293	-1	1554
4	713	7	1	972
4	714	756	-1	1029
4	715	313	-1	1141
4	716	935	-1	2441
4	717	472	-1	1492
4	718	616	-1	2231
4	719	459	-1	3382
4	720	18	-1	1023
4	721	1044	-1	1059
4	722	845	-1	988
4	723	27	-1	2579
4	724	1015	-1	880
4	725	793	1	2397
4	726	132	-1	2574
4	727	217	-1	865
4	728	491	1	1280
4	729	394	-1	799
4	730	1091	1	847
4	731	506	-1	2892
4	732	69	-1	1747
4	733	1388	-1	847
4	734	1102	-1	961
4	735	1283	1	983
4	736	803	1	845
4	737	870	-1	893
4	738	401	-1	1219
4	739	943	1	825
4	740	365	-1	1050
4	741	1007	-1	1378
4	742	738	-1	1070
4	743	259	-1	881
4	744	169	-1	1191
4	745	1128	1	1233
4	746	933	-1	1300
4	747	269	-1	1173
4	748	203	-1	1204
4	749	193	1	3221
4	750	984	-1	923
4	751	898	-1	1254
4	752	1142	-1	1244
4	753	40	-1	1142
4	754	1	-1	1083
4	755	749	-1	1774
4	756	568	-1	1319
4	757	1029	-1	1545
4	758	834	1	1139
4	759	180	-1	863
4	760	1300	1	1225
4	761	525	1	1101
4	762	752	-1	940
4	763	1116	-1	1045
4	764	608	1	970
4	765	70	1	915
4	766	1261	-1	827
4	767	334	1	974
4	768	936	-1	4570
4	769	438	-1	1076
4	770	956	1	974
4	771	45	-1	1031
4	772	856	-1	1319
4	773	861	1	872
4	774	1357	-1	773
4	775	177	-1	1185
4	776	826	1	1117
4	777	1237	-1	1762
4	778	1381	-1	1034
4	779	991	1	762
4	780	335	-1	1049
4	781	139	1	1103
4	782	311	-1	867
4	783	767	1	877
4	784	849	1	987
4	785	865	1	834
4	786	585	-1	891
4	787	1171	1	967
4	788	1153	-1	996
4	789	1305	1	576
4	790	932	-1	745
4	791	640	1	701
4	792	500	-1	684
4	793	709	1	995
4	794	908	-1	702
4	795	806	-1	1258
4	796	902	1	1070
4	797	22	-1	880
4	798	271	1	867
4	799	309	-1	931
4	800	436	-1	1024
4	801	622	1	3698
4	802	497	-1	2409
4	803	698	1	848
4	804	1191	-1	771
4	805	173	1	625
4	806	907	-1	626
4	807	8	1	800
4	808	200	1	853
4	809	737	-1	881
4	810	265	1	1170
4	811	1331	1	847
4	812	667	1	891
4	813	1028	-1	964
4	814	713	1	1210
4	815	704	1	817
4	816	1380	-1	2163
4	817	244	1	893
4	818	1207	1	831
4	819	148	-1	1127
4	820	996	-1	4866
4	821	565	-1	1211
4	822	473	1	3439
4	823	792	1	903
4	824	176	-1	946
4	825	61	-1	6786
4	826	1072	1	704
4	827	863	-1	1014
4	828	501	1	1000
4	829	397	-1	5274
4	830	1267	-1	5777
4	831	1144	1	873
4	832	1352	-1	1010
4	833	84	1	738
4	834	944	1	985
4	835	1294	-1	844
4	836	249	-1	10241
4	837	43	1	3714
4	838	577	1	991
4	839	649	1	3186
4	840	75	-1	796
4	841	1117	1	813
4	842	1082	-1	1049
4	843	1247	-1	5966
4	844	398	1	868
4	845	455	1	756
4	846	569	1	883
4	847	732	-1	2783
4	848	131	1	1413
4	849	356	1	1395
4	850	1132	1	2314
4	851	350	1	964
4	852	509	1	918
4	853	532	1	789
4	854	6	1	739
4	855	814	-1	845
4	856	719	1	965
4	857	209	-1	1007
4	858	1255	1	5278
4	859	134	-1	953
4	860	1162	1	894
4	861	775	1	851
4	862	557	1	1322
4	863	885	1	787
4	864	347	1	2829
4	865	354	-1	971
4	866	119	1	3224
4	867	1107	1	4532
4	868	1254	-1	736
4	869	1363	-1	802
4	870	759	1	734
4	871	677	-1	822
4	872	1299	1	908
4	873	1181	-1	835
4	874	1065	1	1174
4	875	64	-1	1110
4	876	614	-1	9142
4	877	1224	-1	1064
4	878	109	1	1003
4	879	81	-1	819
4	880	875	-1	1101
4	881	1278	-1	873
4	882	443	1	977
4	883	136	-1	51
4	884	1313	1	1060
4	885	951	1	1934
4	886	573	-1	1818
4	887	101	1	790
4	888	79	1	765
4	889	240	1	741
4	890	215	1	881
4	891	650	-1	6133
4	892	832	-1	759
4	893	104	-1	7681
4	894	163	1	5277
4	895	118	1	1238
4	896	613	1	713
4	897	360	1	759
4	898	78	-1	1053
4	899	292	1	2343
4	900	1384	1	822
4	901	781	-1	764
4	902	73	1	892
4	903	539	1	962
4	904	1395	1	919
4	905	67	1	828
4	906	860	1	757
4	907	728	1	858
4	908	336	1	804
4	909	1006	-1	894
4	910	375	1	979
4	911	521	-1	3161
4	912	1026	-1	971
4	913	1194	1	1038
4	914	494	1	874
4	915	53	-1	801
4	916	1311	1	792
4	917	1250	1	1027
4	918	1147	-1	718
4	919	202	1	920
4	920	1218	-1	1083
4	921	266	1	836
4	922	955	1	1147
4	923	1096	1	904
4	924	1204	1	2832
4	925	703	-1	935
4	926	1042	1	898
4	927	736	-1	1312
4	928	818	1	829
4	929	1383	-1	1224
4	930	1392	1	1089
4	931	463	-1	961
4	932	454	1	809
4	933	1186	-1	1162
4	934	10	1	992
4	935	918	-1	1359
4	936	87	-1	916
4	937	407	1	922
4	938	29	-1	728
4	939	404	1	633
4	940	691	-1	976
4	941	372	1	3213
4	942	1119	-1	2290
4	943	619	-1	785
4	944	1121	-1	733
4	945	910	-1	804
4	946	496	-1	1624
4	947	42	1	694
4	948	1098	-1	1911
4	949	1337	1	4262
4	950	992	1	6773
4	951	1360	1	741
4	952	51	1	752
4	953	636	1	5034
4	954	1148	1	1049
4	955	652	1	836
4	956	364	1	488528
4	957	231	-1	951
4	958	1215	1	669
4	959	160	-1	5353
4	960	267	-1	773
4	961	1259	-1	747
4	962	21	1	975
4	963	1206	1	809
4	964	106	1	770
4	965	201	-1	797
4	966	836	-1	794
4	967	661	1	721
4	968	891	-1	2150
4	969	855	1	718
4	970	248	1	829
4	971	1084	1	843
4	972	624	1	1237
4	973	547	-1	906
4	974	327	-1	940
4	975	38	-1	859
4	976	1125	1	735
4	977	820	-1	1003
4	978	1001	-1	3503
4	979	425	-1	780
4	980	344	-1	923
4	981	376	-1	862
4	982	522	1	958
4	983	48	-1	947
4	984	50	-1	1152
4	985	734	-1	3515
4	986	607	1	637
4	987	1011	-1	837
4	988	975	1	1223
4	989	285	-1	764
4	990	1334	1	893
4	991	345	-1	697
4	992	1143	-1	1011
4	993	763	1	963
4	994	493	-1	905
4	995	851	-1	2627
4	996	1336	1	819
4	997	699	-1	970
4	998	409	-1	780
4	999	684	1	1001
4	1000	113	-1	885
4	1001	584	-1	3406
4	1002	1343	1	780
4	1003	1020	-1	1093
4	1004	722	1	945
4	1005	669	-1	754
4	1006	1155	1	712
4	1007	538	-1	771
4	1008	850	1	885
4	1009	1280	1	991
4	1010	929	-1	3146
4	1011	1244	1	729
4	1012	9	-1	725
4	1013	1123	1	2969
4	1014	702	-1	786
4	1015	142	1	660
4	1016	1009	-1	2263
4	1017	15	1	657
4	1018	1370	-1	1234
4	1019	1304	-1	1740
4	1020	1233	-1	732
4	1021	601	-1	2956
4	1022	747	1	877
4	1023	330	1	826
4	1024	647	-1	823
4	1025	302	1	741
4	1026	1228	-1	761
4	1027	1266	1	823
4	1028	1216	-1	794
4	1029	384	1	7405
4	1030	1315	-1	782
4	1031	63	1	711
4	1032	773	-1	749
4	1033	1122	1	678
4	1034	1039	-1	612
4	1035	110	1	831
4	1036	1387	1	927
4	1037	1156	1	1012
4	1038	1288	1	951
4	1039	604	1	1673
4	1040	824	-1	865
4	1041	1130	1	1525
4	1042	634	1	1128
4	1043	599	-1	1021
4	1044	276	-1	1004
4	1045	1163	-1	763
4	1046	1199	1	1262
4	1047	153	-1	816
4	1048	825	1	1070
4	1049	527	-1	1255
4	1050	308	-1	1042
4	1051	1070	1	2655
4	1052	130	1	836
4	1053	664	1	1111
4	1054	979	-1	1347
4	1055	297	1	834
4	1056	475	-1	846
4	1057	489	1	689
4	1058	961	1	1147
4	1059	906	1	907
4	1060	13	1	789
4	1061	874	1	763
4	1062	821	-1	1460
4	1063	28	-1	997
4	1064	1400	1	3445
4	1065	1017	-1	903
4	1066	44	1	876
4	1067	1302	-1	992
4	1068	325	-1	945
4	1069	916	-1	949
4	1070	427	1	892
4	1071	1113	-1	1092
4	1072	990	-1	968
4	1073	598	1	1161
4	1074	743	-1	1272
4	1075	592	-1	2458
4	1076	228	-1	958
4	1077	550	-1	895
4	1078	300	-1	954
4	1079	437	1	922
4	1080	226	-1	1307
4	1081	548	1	1104
4	1082	753	-1	2302
4	1083	140	1	994
4	1084	93	-1	3041
4	1085	1364	-1	2703
4	1086	744	-1	3491
4	1087	321	-1	795
4	1088	478	-1	2078
4	1089	413	-1	822
4	1090	37	-1	3928
4	1091	328	1	971
4	1092	969	-1	1945
4	1093	261	1	1273
4	1094	725	-1	861
4	1095	576	1	648
4	1096	123	-1	645
4	1097	211	1	4184
4	1098	161	-1	935
4	1099	415	1	871
4	1100	486	-1	759
4	1101	1326	-1	1080
4	1102	784	-1	2265
4	1103	528	1	859
4	1104	1124	-1	2429
4	1105	1325	-1	1064
4	1106	213	-1	823
4	1107	1100	1	1094
4	1108	904	-1	764
4	1109	11	1	750
4	1110	1016	-1	639
4	1111	507	-1	3639
4	1112	688	-1	1743
4	1113	246	-1	844
4	1114	889	1	791
4	1115	1344	1	940
4	1116	517	-1	908
4	1117	673	-1	3888
4	1118	389	-1	3709
4	1119	31	-1	830
4	1120	36	-1	772
4	1121	808	-1	809
4	1122	819	1	924
4	1123	229	1	706
4	1124	795	-1	3874
4	1125	786	-1	1113
4	1126	1329	-1	1011
4	1127	701	1	1056
4	1128	1382	-1	1140
4	1129	1398	-1	1319
4	1130	416	1	839
4	1131	919	-1	909
4	1132	567	-1	816
4	1133	687	-1	2803
4	1134	1041	1	830
4	1135	283	1	10318
4	1136	1164	-1	839
4	1137	288	-1	3870
4	1138	1229	-1	799
4	1139	590	-1	817
4	1140	312	1	1199
4	1141	172	1	1945
4	1142	1347	-1	1234
4	1143	681	-1	883
4	1144	46	-1	851
4	1145	114	-1	5265
4	1146	880	-1	991
4	1147	1086	-1	874
4	1148	564	1	995
4	1149	924	-1	793
4	1150	627	-1	3980
4	1151	1386	-1	867
4	1152	291	-1	3763
4	1153	700	1	882
4	1154	1074	1	980
4	1155	841	-1	12201
4	1156	854	-1	2037
4	1157	358	-1	826
4	1158	86	-1	6087
4	1159	682	1	731
4	1160	361	-1	782
4	1161	964	-1	800
4	1162	264	-1	868
4	1163	1168	-1	764
4	1164	1391	-1	1989
4	1165	882	1	18445
4	1166	639	1	864
4	1167	1338	-1	879
4	1168	310	-1	17707
4	1169	940	-1	838
4	1170	847	1	928
4	1171	869	-1	6154
4	1172	1158	-1	814
4	1173	791	1	687
4	1174	1161	-1	869
4	1175	529	-1	16504
4	1176	241	-1	933
4	1177	224	1	733
4	1178	930	-1	645
4	1179	782	1	570
4	1180	903	-1	586
4	1181	1321	-1	9880
4	1182	1010	1	641
4	1183	402	-1	3780
4	1184	1134	1	715
4	1185	54	-1	9378
4	1186	807	1	947
4	1187	954	-1	834
4	1188	439	1	879
4	1189	306	1	1975
4	1190	1000	1	2117
4	1191	137	-1	1217
4	1192	1350	1	820
4	1193	1150	-1	905
4	1194	205	1	761
4	1195	1090	1	783
4	1196	1351	-1	762
4	1197	83	1	752
4	1198	519	-1	881
4	1199	857	1	890
4	1200	1145	-1	4229
4	1201	788	-1	1261
4	1202	92	1	774
4	1203	1274	-1	661
4	1204	1179	1	654
4	1205	776	1	836
4	1206	750	1	771
4	1207	741	1	689
4	1208	239	1	881
4	1209	346	-1	952
4	1210	867	1	842
4	1211	894	1	818
4	1212	287	1	686
4	1213	1373	1	977
4	1214	1292	-1	1233
4	1215	504	1	850
4	1216	1172	-1	1099
4	1217	487	1	838
4	1218	502	-1	2141
4	1219	596	-1	1150
4	1220	796	-1	1121
4	1221	1060	-1	4951
4	1222	168	1	846
4	1223	884	-1	760
4	1224	467	1	851
4	1225	920	1	979
4	1226	1101	-1	1083
4	1227	620	1	1255
4	1228	1081	-1	1133
4	1229	1306	-1	1309
4	1230	307	1	985
4	1231	447	1	2422
4	1232	1253	-1	924
4	1233	170	1	658
4	1234	605	-1	963
4	1235	970	1	1678
4	1236	785	1	2150
4	1237	280	1	1073
4	1238	1227	1	854
4	1239	833	1	1016
4	1240	812	1	982
4	1241	862	1	1250
4	1242	338	1	1113
4	1243	966	1	1085
4	1244	151	1	989
4	1245	520	1	967
4	1246	452	1	6645
4	1247	1368	1	736
4	1248	1183	-1	3345
4	1249	167	1	848
4	1250	674	1	6911
4	1251	1246	1	729
4	1252	798	1	750
4	1253	977	-1	3059
4	1254	382	1	1082
4	1255	133	-1	851
4	1256	399	1	712
4	1257	192	1	2461
4	1258	595	-1	683
4	1259	1048	1	641
4	1260	412	-1	1977
4	1261	1167	1	733
4	1262	1005	1	1015
4	1263	206	1	1468
4	1264	428	1	3924
4	1265	760	-1	788
4	1266	654	1	742
4	1267	695	1	990
4	1268	1061	1	1928
4	1269	52	1	914
4	1270	1332	1	934
4	1271	435	-1	817
4	1272	1025	1	1048
4	1273	942	-1	1229
4	1274	424	-1	994
4	1275	469	1	850
4	1276	578	1	1563
4	1277	642	-1	1014
4	1278	533	-1	1926
4	1279	1110	1	1831
4	1280	1152	1	1000
4	1281	1210	-1	3170
4	1282	1190	-1	831
4	1283	1033	1	820
4	1284	208	-1	735
4	1285	1024	-1	1181
4	1286	939	1	2567
4	1287	462	-1	7379
4	1288	561	1	1080
4	1289	445	1	705
4	1290	828	1	700
4	1291	680	1	653
4	1292	531	1	1924
4	1293	247	-1	3378
4	1294	1203	1	655
4	1295	846	1	723
4	1296	615	-1	1432
4	1297	524	1	2108
4	1298	1268	-1	4747
4	1299	852	1	643
4	1300	1312	-1	755
4	1301	1094	1	2383
4	1302	230	-1	895
4	1303	668	1	741
4	1304	523	1	858
4	1305	1154	1	814
4	1306	362	-1	924
4	1307	1262	-1	847
4	1308	329	-1	837
4	1309	872	1	598
4	1310	71	1	887
4	1311	600	1	789
4	1312	1037	-1	682
4	1313	1108	-1	23016
4	1314	481	-1	3536
4	1315	403	1	744
4	1316	47	-1	812
4	1317	514	1	816
4	1318	537	-1	811
4	1319	1195	1	846
4	1320	758	-1	789
4	1321	968	1	762
4	1322	1170	1	1051
4	1323	464	-1	1240
4	1324	927	-1	859
4	1325	423	1	990
4	1326	1089	-1	1120
4	1327	432	1	816
4	1328	572	-1	7315
4	1329	277	1	9441
4	1330	692	-1	1250
4	1331	89	1	1125
4	1332	1114	1	786
4	1333	449	-1	796
4	1334	1240	1	719
4	1335	317	1	763
4	1336	815	-1	1073
4	1337	499	-1	825
4	1338	340	1	1086
4	1339	672	-1	1126
4	1340	710	1	873
4	1341	268	-1	929
4	1342	831	-1	3373
4	1343	518	-1	896
4	1344	973	1	7855
4	1345	655	1	818
4	1346	80	1	787
4	1347	152	1	905
4	1348	250	1	2815
4	1349	34	1	732
4	1350	762	-1	1075
4	1351	1238	1	766
4	1352	1035	1	1979
4	1353	1127	1	682
4	1354	1314	1	870
4	1355	1209	1	694
4	1356	159	-1	967
4	1357	440	1	829
4	1358	643	-1	860
4	1359	771	-1	1151
4	1360	707	1	943
4	1361	446	-1	928
4	1362	410	-1	861
4	1363	1176	1	734
4	1364	1146	1	786
4	1365	617	-1	959
4	1366	511	1	1066
4	1367	780	1	882
4	1368	1372	1	833
4	1369	1159	1	889
4	1370	303	1	835
4	1371	315	-1	775
4	1372	260	-1	984
4	1373	804	1	1641
4	1374	482	1	743
4	1375	912	-1	774
4	1376	644	1	708
4	1377	1219	-1	783
4	1378	272	1	1050
4	1379	1166	-1	844
4	1380	670	1	847
4	1381	1342	-1	136
4	1382	141	1	872
4	1383	158	-1	713
4	1384	618	1	610
4	1385	108	-1	524
4	1386	1301	-1	1059
4	1387	377	-1	792
4	1388	694	1	1259
4	1389	391	-1	626
4	1390	817	1	639
4	1391	379	-1	4081
4	1392	566	1	1986
4	1393	839	-1	775
4	1394	926	-1	824
4	1395	1362	-1	730
4	1396	390	1	708
4	1397	146	-1	1365
4	1398	556	1	836
4	1399	555	1	1153
4	1400	1105	1	1041
