subject	trial	stimulus	response	responsetime
1	1	487	1	6533
1	2	1110	1	1484
1	3	480	1	1351
1	4	797	1	1781
1	5	1187	-1	1347
1	6	462	1	1101
1	7	1288	-1	1280
1	8	93	-1	1944
1	9	918	-1	1312
1	10	984	-1	4020
1	11	774	-1	1923
1	12	529	-1	1517
1	13	607	1	2205
1	14	1243	1	2319
1	15	564	-1	1941
1	16	1320	-1	999
1	17	856	1	1277
1	18	1352	-1	1051
1	19	450	-1	1665
1	20	1373	-1	1308
1	21	689	-1	1108
1	22	610	-1	3299
1	23	574	-1	1441
1	24	628	1	1308
1	25	270	-1	1768
1	26	468	1	1051
1	27	1182	1	2165
1	28	103	1	1652
1	29	605	1	1572
1	30	226	-1	1012
1	31	1224	1	2340
1	32	1250	1	1664
1	33	669	1	1556
1	34	213	-1	1855
1	35	345	-1	1481
1	36	608	1	1275
1	37	182	-1	1109
1	38	726	1	1292
1	39	145	1	1623
1	40	349	-1	1094
1	41	370	-1	1319
1	42	633	-1	1156
1	43	1179	-1	1692
1	44	511	-1	3428
1	45	1361	-1	1136
1	46	115	-1	1696
1	47	1170	-1	2100
1	48	887	-1	1456
1	49	722	1	1396
1	50	417	-1	1376
1	51	314	1	2015
1	52	138	1	1380
1	53	351	1	1740
1	54	67	1	1344
1	55	290	1	1408
1	56	421	-1	1672
1	57	239	1	1425
1	58	142	1	1971
1	59	229	-1	2648
1	60	921	-1	1100
1	61	1197	1	1748
1	62	1085	-1	1676
1	63	383	1	1328
1	64	1300	1	1424
1	65	1386	-1	2040
1	66	319	-1	1302
1	67	1023	1	1590
1	68	668	-1	1588
1	69	1050	1	896
1	70	146	-1	1056
1	71	164	-1	1244
1	72	819	-1	837
1	73	827	-1	1143
1	74	428	-1	1156
1	75	667	-1	2040
1	76	1012	-1	1153
1	77	1091	-1	963
1	78	1087	-1	1164
1	79	530	-1	1268
1	80	835	1	1756
1	81	255	-1	1068
1	82	425	-1	1148
1	83	114	1	1304
1	84	311	1	1636
1	85	167	1	1436
1	86	461	1	1872
1	87	1389	-1	1120
1	88	77	-1	1556
1	89	939	-1	1156
1	90	1073	1	1540
1	91	1120	-1	1140
1	92	357	-1	1833
1	93	937	-1	1477
1	94	639	-1	1495
1	95	1399	-1	2052
1	96	644	1	1296
1	97	493	1	1697
1	98	1259	1	1860
1	99	116	1	1367
1	100	268	-1	1384
1	101	1142	1	2050
1	102	1205	1	2150
1	103	76	1	1728
1	104	597	-1	2604
1	105	1324	1	969
1	106	1307	1	1883
1	107	390	1	1413
1	108	960	1	1751
1	109	1327	-1	1953
1	110	169	1	955
1	111	1077	1	1100
1	112	1359	-1	1413
1	113	490	-1	1363
1	114	929	1	1228
1	115	300	1	1741
1	116	1310	1	1644
1	117	1301	1	1607
1	118	437	1	1928
1	119	449	1	1780
1	120	877	1	1340
1	121	1350	-1	1860
1	122	1353	1	1292
1	123	931	1	1497
1	124	362	1	1691
1	125	959	1	3005
1	126	197	1	1142
1	127	1309	-1	1241
1	128	912	-1	1460
1	129	193	1	3028
1	130	966	-1	1575
1	131	979	1	1193
1	132	70	-1	1356
1	133	133	-1	1484
1	134	626	-1	1280
1	135	464	1	2199
1	136	593	1	1601
1	137	1392	-1	1979
1	138	218	-1	1440
1	139	1090	1	1125
1	140	350	1	1408
1	141	1229	1	1232
1	142	330	1	2319
1	143	404	-1	1973
1	144	285	-1	1244
1	145	1111	-1	2692
1	146	507	1	2307
1	147	1289	1	1969
1	148	196	1	1804
1	149	1078	1	1340
1	150	1342	1	1756
1	151	1302	-1	915
1	152	366	-1	981
1	153	638	-1	999
1	154	459	-1	1432
1	155	1312	1	1481
1	156	497	1	1848
1	157	1277	-1	1132
1	158	572	-1	1668
1	159	957	-1	1179
1	160	26	-1	1189
1	161	122	1	1523
1	162	857	-1	1541
1	163	746	1	1252
1	164	25	1	1512
1	165	368	-1	1364
1	166	1220	-1	1287
1	167	705	1	1249
1	168	272	1	1180
1	169	329	1	1484
1	170	228	-1	1503
1	171	339	1	2073
1	172	662	-1	1940
1	173	409	1	2471
1	174	1371	1	2464
1	175	247	1	1577
1	176	2	1	1092
1	177	826	1	1096
1	178	1064	1	1520
1	179	1010	1	2076
1	180	787	1	2316
1	181	1006	1	1636
1	182	686	1	1092
1	183	614	-1	1788
1	184	534	1	1205
1	185	64	-1	1511
1	186	1159	-1	1152
1	187	616	1	1124
1	188	799	1	1460
1	189	424	-1	1628
1	190	279	1	1412
1	191	660	1	1940
1	192	86	-1	1984
1	193	310	-1	1740
1	194	214	1	2720
1	195	165	-1	1476
1	196	68	1	2036
1	197	34	1	1228
1	198	14	1	2476
1	199	510	1	2068
1	200	1079	1	1320
1	201	444	-1	2140
1	202	1275	-1	2844
1	203	190	-1	1112
1	204	175	-1	1487
1	205	634	1	1321
1	206	707	-1	1616
1	207	162	-1	1252
1	208	1118	-1	1092
1	209	251	-1	1676
1	210	50	-1	1124
1	211	741	-1	996
1	212	20	-1	2136
1	213	865	1	1340
1	214	1282	-1	1444
1	215	666	1	1068
1	216	570	-1	1064
1	217	1155	-1	1180
1	218	168	1	2408
1	219	374	-1	1996
1	220	1328	-1	1168
1	221	315	1	1576
1	222	688	1	1928
1	223	1040	1	2012
1	224	1315	-1	1552
1	225	443	1	2075
1	226	1070	-1	2569
1	227	1193	-1	1148
1	228	620	-1	1456
1	229	452	-1	1693
1	230	1057	-1	3207
1	231	1231	1	2503
1	232	859	-1	1885
1	233	782	-1	1928
1	234	873	-1	3092
1	235	963	1	2021
1	236	695	-1	1725
1	237	1017	-1	1719
1	238	198	-1	1244
1	239	1059	-1	1417
1	240	275	1	1747
1	241	675	1	1365
1	242	496	-1	1551
1	243	30	1	1376
1	244	736	-1	1061
1	245	806	1	1387
1	246	544	1	1316
1	247	227	-1	1117
1	248	104	-1	979
1	249	968	-1	1372
1	250	1285	1	988
1	251	690	-1	1337
1	252	904	-1	1892
1	253	335	1	1220
1	254	1245	1	1288
1	255	682	1	1343
1	256	896	1	1377
1	257	1216	-1	1792
1	258	1174	-1	1172
1	259	684	1	1459
1	260	879	1	1961
1	261	781	1	1695
1	262	140	-1	1377
1	263	993	1	1195
1	264	720	1	1352
1	265	210	-1	1548
1	266	295	1	1008
1	267	347	1	2156
1	268	1189	-1	1716
1	269	903	1	1380
1	270	818	-1	1189
1	271	981	-1	1148
1	272	1329	-1	1255
1	273	74	-1	1896
1	274	528	1	1169
1	275	1105	1	1839
1	276	884	-1	1097
1	277	152	-1	1472
1	278	482	1	1303
1	279	1340	1	1565
1	280	107	1	1095
1	281	882	-1	1324
1	282	4	-1	2129
1	283	1033	-1	1371
1	284	1351	1	2513
1	285	723	1	1876
1	286	264	-1	1488
1	287	1331	1	1304
1	288	386	1	2208
1	289	512	1	1744
1	290	815	1	2041
1	291	619	1	1254
1	292	406	-1	1584
1	293	304	-1	2221
1	294	793	1	2096
1	295	713	-1	1579
1	296	1003	-1	2589
1	297	566	-1	1148
1	298	505	1	1048
1	299	488	-1	3408
1	300	800	-1	1788
1	301	393	1	1029
1	302	263	1	1647
1	303	807	-1	965
1	304	1247	-1	1856
1	305	990	-1	1227
1	306	426	-1	1225
1	307	654	-1	1036
1	308	1184	-1	1555
1	309	874	-1	1453
1	310	58	-1	1267
1	311	183	1	1505
1	312	1148	-1	1504
1	313	1366	-1	2351
1	314	495	-1	1880
1	315	788	-1	1035
1	316	847	-1	1897
1	317	1056	-1	1276
1	318	821	1	1244
1	319	1166	1	1552
1	320	573	1	948
1	321	99	1	1112
1	322	1212	1	1372
1	323	38	1	1036
1	324	106	1	1208
1	325	1071	1	1224
1	326	1019	1	1171
1	327	1143	-1	1401
1	328	127	1	1040
1	329	606	1	1256
1	330	640	-1	1052
1	331	1357	-1	992
1	332	1358	1	1148
1	333	1234	1	1521
1	334	1157	-1	907
1	335	1284	-1	1263
1	336	467	-1	1253
1	337	758	-1	1808
1	338	378	1	1376
1	339	934	-1	1196
1	340	1028	1	1004
1	341	872	1	1324
1	342	98	-1	1754
1	343	509	-1	1063
1	344	445	1	1363
1	345	836	1	1308
1	346	40	-1	1968
1	347	1102	1	848
1	348	647	-1	1124
1	349	338	1	1304
1	350	219	-1	1120
1	351	611	-1	1188
1	352	909	1	1972
1	353	911	1	1460
1	354	861	-1	1524
1	355	328	1	1104
1	356	576	1	2408
1	357	1225	-1	1276
1	358	147	1	2084
1	359	664	-1	1592
1	360	1365	-1	1828
1	361	602	1	1592
1	362	271	1	1332
1	363	1362	-1	1892
1	364	123	-1	2088
1	365	1253	-1	1629
1	366	489	1	1003
1	367	144	-1	1084
1	368	131	1	908
1	369	1251	-1	1304
1	370	1334	1	1152
1	371	6	1	1400
1	372	683	1	1832
1	373	405	1	1353
1	374	1222	-1	2575
1	375	113	1	1112
1	376	100	1	3036
1	377	915	1	1472
1	378	563	1	1420
1	379	650	1	1824
1	380	1181	1	1080
1	381	83	1	1136
1	382	908	1	1760
1	383	192	1	1744
1	384	553	1	2268
1	385	1338	-1	1289
1	386	733	1	1136
1	387	538	1	1087
1	388	676	1	1585
1	389	594	1	1491
1	390	558	-1	1108
1	391	55	-1	1244
1	392	294	1	1596
1	393	278	-1	1776
1	394	987	-1	1957
1	395	537	-1	1157
1	396	1279	-1	1639
1	397	973	-1	2191
1	398	434	1	1544
1	399	561	1	1657
1	400	1001	1	1055
1	401	649	-1	1224
1	402	1126	1	1060
1	403	161	-1	1060
1	404	1241	1	884
1	405	206	-1	812
1	406	284	-1	1028
1	407	1092	1	1092
1	408	1303	1	1268
1	409	293	1	1160
1	410	1135	1	992
1	411	21	1	1041
1	412	124	-1	1003
1	413	543	1	888
1	414	687	1	1761
1	415	204	1	987
1	416	1393	1	1337
1	417	947	-1	1160
1	418	1034	1	1272
1	419	1238	1	991
1	420	1272	-1	1085
1	421	367	1	836
1	422	919	-1	1883
1	423	1141	1	1365
1	424	403	1	1068
1	425	399	-1	1219
1	426	635	1	880
1	427	883	1	1235
1	428	1266	-1	1106
1	429	166	-1	1203
1	430	732	-1	1031
1	431	1227	-1	1105
1	432	102	1	1197
1	433	348	-1	1103
1	434	177	-1	1196
1	435	829	-1	1464
1	436	731	-1	1368
1	437	831	-1	1221
1	438	914	1	1252
1	439	548	-1	1452
1	440	1372	-1	1244
1	441	470	-1	1539
1	442	180	-1	2724
1	443	1391	1	1425
1	444	982	-1	1596
1	445	1160	1	1476
1	446	420	-1	2376
1	447	211	-1	2035
1	448	557	-1	2457
1	449	1376	-1	1247
1	450	130	-1	1544
1	451	280	1	2220
1	452	539	1	2121
1	453	1254	-1	1328
1	454	1107	1	1500
1	455	862	-1	2219
1	456	245	1	1820
1	457	1377	-1	1304
1	458	1140	1	1928
1	459	1027	-1	1148
1	460	533	1	2373
1	461	484	-1	1208
1	462	94	-1	1768
1	463	1202	-1	1143
1	464	498	-1	2312
1	465	1146	1	1101
1	466	253	-1	4764
1	467	1382	-1	1996
1	468	885	-1	1975
1	469	71	-1	1897
1	470	1313	-1	960
1	471	546	-1	1939
1	472	1081	1	2353
1	473	763	1	2016
1	474	517	1	1420
1	475	1395	-1	2032
1	476	260	-1	1195
1	477	1099	1	2013
1	478	224	-1	2024
1	479	658	1	1272
1	480	1043	-1	1576
1	481	975	-1	2664
1	482	128	-1	2144
1	483	423	-1	1272
1	484	1158	-1	2224
1	485	96	1	1480
1	486	232	1	1124
1	487	1264	-1	1460
1	488	950	1	1652
1	489	243	1	1332
1	490	12	1	1484
1	491	738	-1	1718
1	492	222	-1	1610
1	493	355	1	1620
1	494	402	1	1852
1	495	1262	-1	1884
1	496	694	-1	1187
1	497	863	-1	1049
1	498	118	-1	1396
1	499	11	1	1244
1	500	917	1	1056
1	501	1026	-1	931
1	502	525	-1	1352
1	503	727	-1	1516
1	504	1178	-1	1312
1	505	851	1	896
1	506	1106	-1	1020
1	507	1191	1	1072
1	508	15	-1	2208
1	509	238	-1	1220
1	510	170	-1	1692
1	511	935	1	1688
1	512	1082	1	2704
1	513	545	1	1493
1	514	897	1	1031
1	515	414	1	1236
1	516	376	-1	1504
1	517	500	-1	2868
1	518	156	1	1041
1	519	718	-1	1049
1	520	1144	1	927
1	521	171	-1	901
1	522	1256	1	847
1	523	267	1	1025
1	524	458	1	843
1	525	580	-1	1076
1	526	612	1	975
1	527	704	1	1261
1	528	1294	1	2075
1	529	1029	-1	989
1	530	13	-1	1096
1	531	830	-1	1116
1	532	554	-1	1104
1	533	624	-1	1108
1	534	595	1	1168
1	535	1054	-1	1444
1	536	945	1	2121
1	537	463	1	1023
1	538	456	-1	1088
1	539	1136	-1	1160
1	540	794	-1	1304
1	541	940	1	1176
1	542	201	1	1096
1	543	581	-1	1161
1	544	44	-1	1403
1	545	1074	-1	1492
1	546	1108	-1	1856
1	547	899	-1	1684
1	548	1130	1	1525
1	549	258	1	1763
1	550	663	1	1044
1	551	646	1	1748
1	552	508	1	2037
1	553	479	1	1591
1	554	1000	1	1756
1	555	1124	1	1564
1	556	179	1	944
1	557	924	1	2528
1	558	1232	1	1008
1	559	1086	1	1600
1	560	555	-1	1128
1	561	356	-1	1204
1	562	384	-1	1232
1	563	19	-1	905
1	564	274	1	1383
1	565	1098	1	1272
1	566	418	1	1297
1	567	890	-1	1147
1	568	1269	1	1253
1	569	236	1	1575
1	570	287	1	1356
1	571	568	-1	1072
1	572	1387	-1	1124
1	573	1176	-1	1020
1	574	194	-1	1108
1	575	601	1	1949
1	576	1128	1	963
1	577	988	1	1076
1	578	1067	1	1161
1	579	822	1	1196
1	580	1354	1	1719
1	581	389	-1	1336
1	582	1175	-1	1104
1	583	519	1	1845
1	584	891	-1	1927
1	585	336	1	1400
1	586	60	1	760
1	587	431	1	3008
1	588	492	1	2281
1	589	173	-1	1883
1	590	261	-1	1664
1	591	1018	1	1341
1	592	609	1	1259
1	593	679	1	1072
1	594	1218	1	1461
1	595	962	1	1787
1	596	805	1	1072
1	597	714	-1	1321
1	598	1104	-1	1188
1	599	848	-1	1731
1	600	1299	-1	2396
1	601	109	-1	1549
1	602	303	1	928
1	603	250	1	779
1	604	246	-1	873
1	605	46	1	976
1	606	65	-1	1239
1	607	932	1	1268
1	608	85	1	1149
1	609	235	1	1168
1	610	600	-1	1211
1	611	1292	-1	1464
1	612	369	1	1196
1	613	1066	-1	1108
1	614	29	-1	1641
1	615	809	-1	1144
1	616	562	-1	1112
1	617	195	-1	1288
1	618	1044	1	1040
1	619	1041	1	1276
1	620	1039	-1	1120
1	621	49	-1	936
1	622	1101	1	1152
1	623	312	1	716
1	624	659	-1	1200
1	625	1217	-1	1268
1	626	1332	-1	1127
1	627	1167	1	841
1	628	1173	-1	1168
1	629	522	1	956
1	630	248	1	1204
1	631	441	1	916
1	632	320	1	2196
1	633	637	-1	1252
1	634	559	1	2640
1	635	1207	1	1187
1	636	1046	1	741
1	637	933	1	987
1	638	1380	1	717
1	639	62	1	1032
1	640	1196	-1	875
1	641	412	1	797
1	642	212	-1	1067
1	643	1060	-1	981
1	644	1156	-1	1079
1	645	371	1	873
1	646	1031	-1	1228
1	647	613	1	827
1	648	1119	-1	1165
1	649	759	-1	1376
1	650	346	1	959
1	651	231	-1	1017
1	652	1076	1	908
1	653	778	1	1103
1	654	571	1	844
1	655	790	1	1452
1	656	81	-1	1069
1	657	181	1	1284
1	658	1388	1	1035
1	659	202	1	1188
1	660	273	1	1243
1	661	433	-1	1056
1	662	532	-1	1077
1	663	97	1	1488
1	664	852	1	1036
1	665	259	-1	1576
1	666	1129	1	1100
1	667	938	1	1216
1	668	1117	-1	1959
1	669	1198	-1	997
1	670	1068	1	772
1	671	301	1	1072
1	672	833	-1	884
1	673	516	-1	936
1	674	478	1	1059
1	675	796	1	1164
1	676	382	1	1009
1	677	291	1	1808
1	678	752	1	1788
1	679	1335	1	2044
1	680	394	-1	1080
1	681	1037	-1	888
1	682	392	1	931
1	683	586	1	1041
1	684	1385	1	968
1	685	820	1	1288
1	686	172	-1	2304
1	687	1058	1	1004
1	688	1200	1	928
1	689	1263	1	1164
1	690	474	1	1133
1	691	880	-1	1335
1	692	1287	1	1140
1	693	980	1	892
1	694	397	1	864
1	695	849	1	1080
1	696	262	1	820
1	697	711	1	1356
1	698	337	1	1088
1	699	1370	1	1172
1	700	920	1	1161
1	701	158	1	1140
1	702	892	-1	708
1	703	949	1	1137
1	704	739	1	640
1	705	410	-1	912
1	706	1215	-1	1972
1	707	217	-1	1120
1	708	905	1	836
1	709	902	1	868
1	710	1004	1	988
1	711	501	1	1028
1	712	1011	1	897
1	713	866	1	939
1	714	1394	-1	1268
1	715	910	1	1076
1	716	900	1	1336
1	717	306	-1	1236
1	718	964	1	976
1	719	1268	1	1049
1	720	681	-1	1751
1	721	983	-1	1356
1	722	1214	-1	1113
1	723	208	1	1187
1	724	901	1	1060
1	725	69	-1	1565
1	726	1341	1	1103
1	727	1237	1	1153
1	728	9	1	963
1	729	1180	1	1540
1	730	400	1	821
1	731	888	-1	1163
1	732	740	1	1652
1	733	1036	1	1220
1	734	1330	1	1220
1	735	455	1	1968
1	736	721	1	1448
1	737	396	1	1608
1	738	308	1	1848
1	739	327	1	1432
1	740	838	1	1044
1	741	1100	-1	1433
1	742	791	-1	1219
1	743	953	-1	1852
1	744	837	1	1516
1	745	27	-1	1336
1	746	1383	-1	1192
1	747	925	1	1276
1	748	506	-1	1272
1	749	569	1	1792
1	750	674	1	1105
1	751	1164	-1	875
1	752	665	-1	973
1	753	186	1	1131
1	754	297	-1	1104
1	755	974	-1	1573
1	756	82	-1	1211
1	757	1345	-1	2008
1	758	199	1	1141
1	759	1221	1	1120
1	760	325	1	1060
1	761	1206	1	1136
1	762	353	1	992
1	763	475	1	985
1	764	41	1	2108
1	765	1267	1	1227
1	766	1047	1	1176
1	767	1063	1	1348
1	768	313	1	1192
1	769	1337	1	1340
1	770	858	1	48
1	771	845	1	936
1	772	1062	1	1076
1	773	108	-1	1220
1	774	471	-1	1224
1	775	785	1	1964
1	776	1323	-1	892
1	777	288	1	1124
1	778	1109	1	984
1	779	1336	1	1700
1	780	670	1	1084
1	781	453	-1	1592
1	782	373	1	1424
1	783	1255	1	1068
1	784	961	1	1204
1	785	277	1	1040
1	786	582	1	984
1	787	299	-1	1001
1	788	898	1	1123
1	789	943	1	1276
1	790	583	1	1636
1	791	1280	1	1216
1	792	696	1	1176
1	793	31	1	1644
1	794	1363	1	1316
1	795	1326	1	1272
1	796	331	1	1464
1	797	47	1	1052
1	798	1398	1	1192
1	799	324	1	1316
1	800	893	1	1316
1	801	798	1	2596
1	802	483	-1	1101
1	803	1014	-1	1431
1	804	761	-1	1264
1	805	969	1	3112
1	806	1149	1	2291
1	807	886	-1	1404
1	808	552	1	932
1	809	354	1	1516
1	810	1185	-1	1832
1	811	755	1	1185
1	812	724	1	1488
1	813	926	1	1475
1	814	853	-1	1425
1	815	163	-1	1084
1	816	1230	1	1612
1	817	1321	1	1303
1	818	1281	-1	993
1	819	1348	1	1068
1	820	768	-1	892
1	821	136	1	1136
1	822	436	1	851
1	823	748	-1	1109
1	824	54	1	1403
1	825	750	-1	1341
1	826	1114	-1	888
1	827	828	1	915
1	828	91	-1	936
1	829	1210	1	824
1	830	281	1	1152
1	831	1356	1	1524
1	832	698	-1	1117
1	833	1005	1	887
1	834	1368	1	1229
1	835	1083	1	1666
1	836	657	-1	1986
1	837	832	1	1200
1	838	439	-1	1184
1	839	986	1	1419
1	840	1163	-1	1177
1	841	737	-1	1712
1	842	1147	-1	1323
1	843	1317	1	1664
1	844	588	1	1148
1	845	221	-1	1692
1	846	744	-1	965
1	847	651	-1	1888
1	848	1246	-1	1151
1	849	955	1	1124
1	850	839	1	772
1	851	716	-1	2057
1	852	864	-1	1336
1	853	155	-1	2143
1	854	786	-1	993
1	855	735	-1	2976
1	856	266	-1	1080
1	857	95	1	1031
1	858	587	1	1168
1	859	265	1	1113
1	860	869	1	1056
1	861	174	1	1068
1	862	1318	1	1691
1	863	207	1	1220
1	864	625	1	1789
1	865	629	1	1216
1	866	734	-1	1259
1	867	1211	1	680
1	868	1069	-1	1029
1	869	372	-1	1015
1	870	1093	1	1065
1	871	72	-1	1212
1	872	119	-1	1560
1	873	1349	1	1408
1	874	401	1	1408
1	875	469	1	1332
1	876	150	1	1272
1	877	188	1	1684
1	878	1355	1	980
1	879	237	1	1444
1	880	803	1	1924
1	881	701	1	968
1	882	1364	1	1256
1	883	398	-1	1312
1	884	712	1	1399
1	885	946	1	2733
1	886	1072	-1	1192
1	887	823	1	1304
1	888	1375	-1	1688
1	889	184	1	1260
1	890	1278	-1	1048
1	891	855	1	2780
1	892	1032	-1	1548
1	893	867	1	1100
1	894	753	1	1288
1	895	1186	-1	1384
1	896	481	-1	1244
1	897	1089	1	963
1	898	1239	1	881
1	899	1177	-1	1201
1	900	513	1	1339
1	901	1240	-1	1658
1	902	241	1	907
1	903	590	-1	1057
1	904	457	1	887
1	905	550	1	1168
1	906	78	-1	1558
1	907	1172	1	1060
1	908	1161	1	1056
1	909	200	1	1356
1	910	661	1	925
1	911	1343	-1	1172
1	912	61	-1	1024
1	913	672	1	1155
1	914	1009	-1	817
1	915	1311	-1	1420
1	916	249	1	1302
1	917	1265	1	1278
1	918	1379	-1	1264
1	919	298	1	1127
1	920	472	1	925
1	921	1369	1	1032
1	922	446	-1	1032
1	923	1065	-1	1288
1	924	302	-1	1180
1	925	1051	-1	872
1	926	429	-1	1398
1	927	1024	1	1043
1	928	824	-1	796
1	929	408	1	1236
1	930	427	1	1148
1	931	1035	1	941
1	932	631	-1	1452
1	933	846	-1	1156
1	934	641	1	1084
1	935	1084	-1	755
1	936	678	1	1165
1	937	706	1	851
1	938	518	-1	1028
1	939	63	-1	1388
1	940	286	1	856
1	941	989	1	1064
1	942	540	1	837
1	943	717	1	1004
1	944	1154	1	1471
1	945	503	-1	1352
1	946	1260	1	1024
1	947	5	1	1100
1	948	111	-1	1081
1	949	927	1	1116
1	950	101	1	1067
1	951	535	1	1009
1	952	1194	1	1200
1	953	240	1	907
1	954	205	1	999
1	955	141	-1	1889
1	956	435	1	908
1	957	234	1	1016
1	958	870	1	1150
1	959	514	1	1078
1	960	1276	1	1759
1	961	998	1	1284
1	962	257	1	1145
1	963	779	1	1835
1	964	143	1	2228
1	965	230	1	1648
1	966	1228	-1	1177
1	967	1304	-1	1904
1	968	1204	1	1467
1	969	1139	1	1073
1	970	1333	-1	1340
1	971	754	-1	1415
1	972	1088	-1	956
1	973	764	1	996
1	974	51	1	968
1	975	745	-1	1345
1	976	585	1	2343
1	977	321	-1	1084
1	978	391	1	1384
1	979	810	1	2673
1	980	1249	1	1091
1	981	771	1	1721
1	982	148	1	1708
1	983	708	1	871
1	984	185	-1	1481
1	985	1283	-1	1304
1	986	1137	-1	1083
1	987	655	-1	945
1	988	1274	-1	1304
1	989	1007	-1	1156
1	990	358	1	891
1	991	691	1	1057
1	992	677	1	855
1	993	1016	-1	1569
1	994	895	-1	1016
1	995	139	1	884
1	996	812	1	1086
1	997	153	1	1474
1	998	757	-1	1380
1	999	80	-1	1188
1	1000	323	1	924
1	1001	178	-1	1755
1	1002	105	1	809
1	1003	889	-1	1003
1	1004	187	1	773
1	1005	956	-1	1422
1	1006	42	-1	745
1	1007	110	-1	920
1	1008	432	-1	1232
1	1009	645	1	1075
1	1010	948	1	841
1	1011	1325	-1	976
1	1012	1052	-1	2253
1	1013	860	1	751
1	1014	24	1	1056
1	1015	1270	1	1397
1	1016	465	1	919
1	1017	976	1	893
1	1018	121	-1	1220
1	1019	283	1	1728
1	1020	340	1	1064
1	1021	92	1	1035
1	1022	995	1	732
1	1023	604	-1	1286
1	1024	692	-1	876
1	1025	84	1	827
1	1026	341	1	1076
1	1027	451	1	905
1	1028	189	-1	1944
1	1029	814	1	1188
1	1030	1094	-1	1312
1	1031	491	1	780
1	1032	994	1	1520
1	1033	542	1	1220
1	1034	56	-1	1048
1	1035	1305	1	668
1	1036	1075	1	836
1	1037	1242	1	936
1	1038	1171	1	1200
1	1039	448	-1	1368
1	1040	971	1	832
1	1041	7	1	2332
1	1042	760	1	920
1	1043	643	-1	993
1	1044	697	1	1755
1	1045	159	1	1080
1	1046	521	-1	1088
1	1047	1145	-1	1184
1	1048	415	-1	1144
1	1049	438	1	1416
1	1050	1306	1	1372
1	1051	1096	1	1060
1	1052	1271	-1	1068
1	1053	871	-1	1032
1	1054	22	-1	1725
1	1055	1374	1	1079
1	1056	176	1	1127
1	1057	1223	1	1157
1	1058	1233	1	1112
1	1059	599	1	1148
1	1060	1314	1	820
1	1061	1298	1	1004
1	1062	551	1	1176
1	1063	88	1	1024
1	1064	407	1	1364
1	1065	930	1	1968
1	1066	816	-1	1531
1	1067	560	1	1177
1	1068	715	-1	1047
1	1069	575	1	1500
1	1070	37	1	1236
1	1071	792	1	1141
1	1072	878	1	1127
1	1073	531	1	816
1	1074	520	1	1148
1	1075	703	1	836
1	1076	627	-1	1400
1	1077	1192	-1	1460
1	1078	363	-1	892
1	1079	1025	-1	1356
1	1080	52	1	1345
1	1081	476	1	1179
1	1082	1203	-1	1388
1	1083	460	1	816
1	1084	430	-1	836
1	1085	126	-1	1288
1	1086	375	1	1081
1	1087	923	-1	1040
1	1088	1053	1	1567
1	1089	1162	-1	1092
1	1090	381	-1	1292
1	1091	777	1	1088
1	1092	1103	1	1192
1	1093	1190	-1	1296
1	1094	1022	1	1397
1	1095	157	-1	1055
1	1096	411	1	1112
1	1097	591	-1	1200
1	1098	57	1	1325
1	1099	1002	1	887
1	1100	90	1	1004
1	1101	843	-1	1687
1	1102	1123	-1	1172
1	1103	652	-1	2616
1	1104	1168	1	1089
1	1105	269	-1	1439
1	1106	318	1	1324
1	1107	326	1	1088
1	1108	343	1	1937
1	1109	442	1	1763
1	1110	1020	-1	1100
1	1111	817	-1	1140
1	1112	596	-1	1233
1	1113	344	-1	856
1	1114	132	1	1172
1	1115	1045	-1	1477
1	1116	1261	1	955
1	1117	18	-1	1168
1	1118	941	1	1304
1	1119	825	1	1040
1	1120	333	1	1256
1	1121	1150	-1	2485
1	1122	160	-1	395
1	1123	700	-1	864
1	1124	1319	-1	1596
1	1125	770	-1	1148
1	1126	709	-1	1225
1	1127	636	-1	1012
1	1128	795	1	1791
1	1129	1347	1	1000
1	1130	422	-1	1189
1	1131	881	1	1568
1	1132	1397	1	1035
1	1133	66	1	1400
1	1134	944	1	1004
1	1135	1030	1	1293
1	1136	1339	1	1240
1	1137	584	1	2163
1	1138	504	1	1441
1	1139	1199	1	1084
1	1140	549	1	1183
1	1141	527	-1	1309
1	1142	276	-1	1152
1	1143	592	1	1100
1	1144	317	-1	1208
1	1145	499	1	1692
1	1146	361	1	1115
1	1147	191	-1	1856
1	1148	1038	1	1213
1	1149	673	-1	1363
1	1150	75	-1	1532
1	1151	536	1	1457
1	1152	623	1	1196
1	1153	671	1	1287
1	1154	1293	1	2280
1	1155	766	1	1021
1	1156	954	-1	971
1	1157	215	1	2332
1	1158	783	1	664
1	1159	719	1	2276
1	1160	579	1	3468
1	1161	305	1	1040
1	1162	1138	-1	1860
1	1163	244	-1	1008
1	1164	699	1	2175
1	1165	242	-1	1117
1	1166	907	1	2948
1	1167	447	1	1488
1	1168	233	1	1004
1	1169	1055	-1	1775
1	1170	1122	-1	909
1	1171	216	-1	1008
1	1172	841	-1	1059
1	1173	1208	-1	1081
1	1174	729	-1	1672
1	1175	1378	-1	1076
1	1176	28	-1	1240
1	1177	765	-1	1395
1	1178	282	-1	1372
1	1179	789	1	993
1	1180	992	1	943
1	1181	135	1	1217
1	1182	203	-1	983
1	1183	1290	1	1029
1	1184	494	1	984
1	1185	10	1	1060
1	1186	685	1	992
1	1187	73	-1	1107
1	1188	33	1	1036
1	1189	615	1	1037
1	1190	730	-1	923
1	1191	377	1	1056
1	1192	89	1	893
1	1193	1252	1	1448
1	1194	642	1	1371
1	1195	1308	-1	877
1	1196	1133	1	1620
1	1197	728	-1	1112
1	1198	1390	-1	1068
1	1199	359	1	940
1	1200	1115	1	824
1	1201	1134	1	1228
1	1202	876	-1	1016
1	1203	48	-1	1527
1	1204	1219	-1	869
1	1205	1080	1	1104
1	1206	630	1	792
1	1207	772	1	780
1	1208	922	1	952
1	1209	978	1	936
1	1210	1384	1	1291
1	1211	322	1	741
1	1212	951	1	807
1	1213	332	-1	1581
1	1214	1297	1	988
1	1215	225	-1	840
1	1216	894	-1	947
1	1217	589	1	861
1	1218	39	-1	1500
1	1219	970	-1	984
1	1220	804	1	1056
1	1221	1209	1	736
1	1222	342	1	989
1	1223	997	1	1015
1	1224	942	-1	1475
1	1225	808	1	593
1	1226	43	1	1092
1	1227	769	-1	1007
1	1228	17	1	1065
1	1229	1248	1	968
1	1230	1400	-1	1363
1	1231	289	1	1233
1	1232	622	1	928
1	1233	523	1	1128
1	1234	254	-1	1296
1	1235	844	-1	1160
1	1236	1226	1	667
1	1237	565	1	1181
1	1238	813	-1	1035
1	1239	693	-1	1049
1	1240	352	1	723
1	1241	743	1	1221
1	1242	725	1	1024
1	1243	1021	1	1316
1	1244	360	-1	1780
1	1245	1127	-1	1288
1	1246	854	-1	816
1	1247	875	1	1056
1	1248	129	1	1272
1	1249	32	1	1288
1	1250	1008	1	1488
1	1251	1257	-1	1048
1	1252	1244	1	1047
1	1253	334	-1	1224
1	1254	252	1	665
1	1255	840	1	1592
1	1256	309	-1	972
1	1257	1367	1	664
1	1258	967	1	896
1	1259	1322	1	788
1	1260	952	1	1237
1	1261	618	1	1008
1	1262	1344	1	920
1	1263	380	1	1624
1	1264	656	1	1600
1	1265	1042	1	1536
1	1266	1381	1	1348
1	1267	985	-1	1156
1	1268	36	-1	1060
1	1269	1013	1	1025
1	1270	209	1	1147
1	1271	385	-1	1015
1	1272	972	-1	1265
1	1273	751	-1	1808
1	1274	117	1	1092
1	1275	868	-1	1560
1	1276	454	-1	912
1	1277	1049	-1	1177
1	1278	928	1	1699
1	1279	1095	-1	1750
1	1280	35	-1	996
1	1281	965	-1	1241
1	1282	556	1	1246
1	1283	1165	-1	1441
1	1284	1346	1	873
1	1285	603	-1	1478
1	1286	1360	-1	1227
1	1287	1061	-1	1048
1	1288	958	1	936
1	1289	762	-1	1071
1	1290	416	1	1041
1	1291	387	1	564
1	1292	567	-1	904
1	1293	598	1	1656
1	1294	256	-1	1993
1	1295	1296	-1	1175
1	1296	834	1	948
1	1297	1153	-1	1232
1	1298	802	-1	1356
1	1299	913	1	1184
1	1300	1201	1	1608
1	1301	767	1	1280
1	1302	1113	1	1068
1	1303	1236	-1	1012
1	1304	1	1	880
1	1305	395	-1	1204
1	1306	747	1	1004
1	1307	775	-1	1732
1	1308	23	-1	1619
1	1309	842	-1	1128
1	1310	742	1	1085
1	1311	1125	1	1284
1	1312	1273	-1	1403
1	1313	413	1	1240
1	1314	1396	-1	1156
1	1315	151	-1	1064
1	1316	1112	1	1036
1	1317	440	1	940
1	1318	621	1	1196
1	1319	524	-1	1168
1	1320	1048	1	996
1	1321	486	1	704
1	1322	364	1	1137
1	1323	1295	1	1276
1	1324	526	1	768
1	1325	79	1	1051
1	1326	1213	-1	952
1	1327	515	-1	924
1	1328	502	1	1120
1	1329	653	1	1072
1	1330	999	-1	1228
1	1331	1116	1	1220
1	1332	125	-1	977
1	1333	485	1	863
1	1334	1121	-1	1180
1	1335	149	-1	892
1	1336	578	1	1060
1	1337	87	-1	1064
1	1338	137	-1	1153
1	1339	419	1	847
1	1340	1169	1	1504
1	1341	547	1	1672
1	1342	776	-1	1065
1	1343	296	-1	984
1	1344	1235	1	1511
1	1345	53	1	1412
1	1346	936	1	1385
1	1347	1151	-1	859
1	1348	379	-1	1265
1	1349	1183	1	1228
1	1350	996	1	903
1	1351	1195	1	1500
1	1352	8	-1	2336
1	1353	1097	1	971
1	1354	1015	-1	1225
1	1355	307	-1	1912
1	1356	710	1	1860
1	1357	906	-1	1644
1	1358	388	-1	1373
1	1359	977	1	1119
1	1360	120	-1	1237
1	1361	45	-1	1031
1	1362	991	-1	1080
1	1363	702	1	964
1	1364	134	-1	2160
1	1365	617	1	1348
1	1366	1291	1	1488
1	1367	632	1	1133
1	1368	1258	1	1020
1	1369	292	1	1155
1	1370	466	1	1309
1	1371	16	-1	867
1	1372	541	1	1333
1	1373	59	1	875
1	1374	365	1	1141
1	1375	850	1	976
1	1376	784	-1	1280
1	1377	916	1	1055
1	1378	756	1	1309
1	1379	220	1	1207
1	1380	1131	-1	1108
1	1381	1286	1	1108
1	1382	3	1	1401
1	1383	1316	1	1127
1	1384	223	1	1664
1	1385	811	-1	1241
1	1386	680	1	1664
1	1387	773	-1	1471
1	1388	473	1	1128
1	1389	477	-1	861
1	1390	780	1	975
1	1391	749	1	1104
1	1392	577	-1	1476
1	1393	154	-1	1360
1	1394	316	-1	1288
1	1395	1152	1	1136
1	1396	801	1	952
1	1397	112	-1	1821
1	1398	1132	1	1644
1	1399	1188	1	1084
1	1400	648	1	1560
2	1	644	1	2962
2	2	510	1	4678
2	3	1253	1	3198
2	4	1280	-1	3896
2	5	572	-1	4600
2	6	1189	-1	1678
2	7	1000	-1	3762
2	8	1254	-1	1668
2	9	235	1	1952
2	10	568	-1	1928
2	11	1275	-1	6058
2	12	120	-1	5008
2	13	771	-1	9560
2	14	863	-1	2336
2	15	85	1	1850
2	16	108	-1	6386
2	17	356	-1	2124
2	18	341	1	4750
2	19	684	-1	6662
2	20	175	1	2406
2	21	1034	-1	7210
2	22	700	1	3018
2	23	1374	1	1708
2	24	743	1	1668
2	25	995	1	9186
2	26	267	-1	5180
2	27	301	-1	3998
2	28	1397	-1	5886
2	29	1043	1	10516
2	30	427	-1	2060
2	31	754	1	8322
2	32	1335	-1	21356
2	33	639	1	1950
2	34	654	1	4248
2	35	1252	1	2452
2	36	1108	-1	2288
2	37	214	-1	3142
2	38	155	1	2342
2	39	1159	1	5666
2	40	902	1	1976
2	41	58	-1	2396
2	42	264	-1	1895
2	43	1290	-1	6034
2	44	1097	1	5359
2	45	984	-1	3190
2	46	1378	-1	8368
2	47	1239	-1	6960
2	48	19	-1	2460
2	49	730	1	4928
2	50	190	1	5886
2	51	286	1	11348
2	52	778	-1	1926
2	53	781	-1	4452
2	54	564	-1	5870
2	55	932	-1	9992
2	56	801	-1	2728
2	57	1144	-1	2773
2	58	262	1	6521
2	59	1111	1	3690
2	60	587	-1	2092
2	61	147	1	6082
2	62	230	-1	6534
2	63	1133	-1	1944
2	64	71	1	7420
2	65	138	-1	8072
2	66	498	-1	8573
2	67	1064	-1	1809
2	68	1212	-1	5710
2	69	205	1	4578
2	70	1017	-1	4144
2	71	1075	1	14654
2	72	127	1	22847
2	73	280	1	2476
2	74	720	1	2720
2	75	1250	-1	21744
2	76	803	1	6912
2	77	1286	-1	2956
2	78	938	-1	11896
2	79	97	-1	6638
2	80	710	-1	6472
2	81	980	1	2084
2	82	614	-1	2288
2	83	645	1	9092
2	84	308	-1	2540
2	85	1322	-1	2445
2	86	1396	-1	4803
2	87	156	1	17484
2	88	954	-1	6926
2	89	265	1	2509
2	90	403	1	7913
2	91	689	-1	1858
2	92	833	-1	10576
2	93	913	1	37471
2	94	285	1	15935
2	95	113	1	4662
2	96	252	1	2922
2	97	566	-1	45086
2	98	153	-1	2970
2	99	334	1	2192
2	100	652	-1	14496
2	101	439	-1	6369
2	102	1361	1	2200
2	103	636	1	2070
2	104	1194	1	2280
2	105	1304	-1	3822
2	106	288	1	2078
2	107	656	1	2476
2	108	1329	-1	3306
2	109	219	1	3752
2	110	351	1	4394
2	111	131	-1	2444
2	112	708	1	1520
2	113	516	-1	1582
2	114	1026	-1	3526
2	115	979	1	5986
2	116	585	-1	2946
2	117	453	-1	8452
2	118	539	1	3534
2	119	878	1	2318
2	120	606	1	4310
2	121	1210	-1	6118
2	122	562	-1	1778
2	123	72	-1	1982
2	124	604	-1	1928
2	125	447	1	6150
2	126	1308	-1	1966
2	127	459	1	7710
2	128	610	-1	7004
2	129	227	1	5768
2	130	741	1	2858
2	131	470	1	19868
2	132	23	1	5650
2	133	922	-1	4724
2	134	1346	1	8666
2	135	695	-1	7146
2	136	1045	-1	10342
2	137	1299	1	1888
2	138	981	-1	2514
2	139	950	1	3040
2	140	540	-1	4984
2	141	52	1	2482
2	142	1301	1	5138
2	143	729	1	6306
2	144	59	-1	1960
2	145	977	-1	7042
2	146	171	1	4426
2	147	414	-1	2562
2	148	68	-1	11892
2	149	118	-1	2430
2	150	344	-1	4496
2	151	609	1	18192
2	152	783	-1	14378
2	153	534	-1	6370
2	154	1025	1	1440
2	155	808	-1	4326
2	156	1155	1	6234
2	157	1141	-1	8846
2	158	905	-1	2452
2	159	693	-1	1458
2	160	1255	-1	5610
2	161	888	1	2122
2	162	1339	-1	7200
2	163	1247	1	1410
2	164	547	1	2138
2	165	143	1	10450
2	166	658	1	4197
2	167	757	-1	3717
2	168	765	1	5452
2	169	1055	-1	4192
2	170	688	1	5468
2	171	1338	-1	2194
2	172	608	1	7248
2	173	1004	1	8516
2	174	322	1	6324
2	175	785	-1	5280
2	176	1180	1	3376
2	177	635	1	10782
2	178	1109	1	5900
2	179	106	1	3824
2	180	1302	1	5602
2	181	25	1	3032
2	182	791	-1	5210
2	183	1132	-1	5970
2	184	343	1	8602
2	185	1150	-1	5846
2	186	114	-1	3376
2	187	958	-1	5924
2	188	1340	-1	2492
2	189	492	-1	2506
2	190	583	-1	7154
2	191	574	-1	5169
2	192	1279	-1	1943
2	193	199	-1	5900
2	194	299	1	5274
2	195	16	1	7818
2	196	816	-1	10958
2	197	81	-1	5814
2	198	964	1	9306
2	199	1157	1	4010
2	200	753	1	5710
2	201	271	1	7385
2	202	711	1	8452
2	203	1010	-1	7794
2	204	110	-1	1356
2	205	623	-1	2890
2	206	1009	1	3626
2	207	628	-1	3612
2	208	736	-1	5976
2	209	517	-1	3722
2	210	62	1	2983
2	211	766	1	3973
2	212	466	-1	4683
2	213	545	1	9142
2	214	548	1	3407
2	215	713	1	8131
2	216	206	1	5062
2	217	133	1	10348
2	218	665	1	2326
2	219	1385	1	2734
2	220	331	-1	12286
2	221	772	1	3110
2	222	1333	-1	2804
2	223	220	-1	4222
2	224	1188	1	8364
2	225	1317	-1	2242
2	226	1051	-1	4604
2	227	860	-1	1950
2	228	12	-1	9784
2	229	455	-1	8272
2	230	988	1	1206
2	231	1187	-1	4176
2	232	1218	1	1910
2	233	1031	1	3054
2	234	474	1	3298
2	235	57	-1	6502
2	236	1029	-1	2624
2	237	293	1	5396
2	238	39	-1	1450
2	239	1337	-1	4228
2	240	1219	1	2680
2	241	152	1	4996
2	242	1046	-1	1402
2	243	744	-1	10712
2	244	1379	1	9204
2	245	40	1	3414
2	246	216	-1	5860
2	247	342	-1	6062
2	248	959	1	3682
2	249	251	-1	8074
2	250	1131	-1	3290
2	251	1099	1	7544
2	252	49	1	3664
2	253	397	1	2812
2	254	1038	1	2622
2	255	1375	1	3776
2	256	1172	1	4260
2	257	544	1	8386
2	258	690	-1	1644
2	259	6	-1	2122
2	260	26	-1	1394
2	261	1165	1	6860
2	262	839	1	6054
2	263	934	-1	5208
2	264	354	1	1952
2	265	1274	1	2160
2	266	1196	1	6916
2	267	1291	1	1488
2	268	1278	1	1958
2	269	624	-1	1660
2	270	1179	-1	5116
2	271	514	-1	1434
2	272	1226	-1	5928
2	273	1316	-1	1792
2	274	592	1	1270
2	275	972	1	4110
2	276	858	-1	5286
2	277	150	1	3806
2	278	884	-1	4942
2	279	637	-1	1512
2	280	266	-1	3148
2	281	187	-1	3476
2	282	557	-1	1926
2	283	671	1	1724
2	284	1185	1	1104
2	285	307	-1	1480
2	286	306	1	3194
2	287	245	1	3220
2	288	1114	-1	2482
2	289	939	1	2270
2	290	170	1	2326
2	291	746	1	3978
2	292	727	1	5646
2	293	124	-1	2028
2	294	1202	-1	3744
2	295	1156	1	4886
2	296	279	1	2922
2	297	472	-1	2904
2	298	117	-1	11936
2	299	28	-1	5904
2	300	882	-1	3156
2	301	966	-1	2124
2	302	885	-1	1590
2	303	1363	-1	1731
2	304	353	1	1762
2	305	676	1	2068
2	306	20	-1	3298
2	307	1154	-1	1480
2	308	142	-1	1998
2	309	947	-1	2828
2	310	590	-1	1230
2	311	912	-1	2262
2	312	586	1	1842
2	313	431	1	1754
2	314	1057	-1	1254
2	315	616	-1	3054
2	316	865	-1	3070
2	317	111	-1	5638
2	318	237	-1	1912
2	319	382	-1	2898
2	320	737	1	1277
2	321	184	1	4299
2	322	1167	1	1606
2	323	413	1	2068
2	324	1166	1	3250
2	325	37	1	7276
2	326	1276	1	5335
2	327	273	1	15343
2	328	225	-1	2264
2	329	483	-1	1927
2	330	1323	-1	1919
2	331	895	1	1464
2	332	809	-1	3102
2	333	1106	1	2208
2	334	53	-1	4496
2	335	94	1	1754
2	336	1190	-1	2408
2	337	626	1	7532
2	338	391	1	1490
2	339	1386	1	1926
2	340	112	-1	1630
2	341	448	-1	1692
2	342	259	-1	1316
2	343	541	1	5061
2	344	745	-1	5453
2	345	940	-1	4614
2	346	1251	-1	2342
2	347	1305	1	5162
2	348	374	-1	1496
2	349	655	1	2519
2	350	141	-1	1843
2	351	970	-1	4050
2	352	1287	-1	1818
2	353	257	1	2380
2	354	768	-1	1488
2	355	838	-1	1582
2	356	1245	-1	2938
2	357	1263	1	2678
2	358	1267	1	5302
2	359	664	-1	1738
2	360	822	1	4160
2	361	1227	-1	2672
2	362	504	1	4284
2	363	98	-1	1934
2	364	518	1	2726
2	365	48	1	3744
2	366	355	-1	1346
2	367	760	1	2632
2	368	211	-1	2334
2	369	233	1	2060
2	370	971	1	2506
2	371	965	-1	1488
2	372	1061	-1	2812
2	373	146	-1	1786
2	374	893	-1	1730
2	375	535	-1	1410
2	376	563	1	3416
2	377	998	1	2028
2	378	1135	1	3204
2	379	1381	-1	1864
2	380	890	1	3822
2	381	1030	1	6550
2	382	165	1	3352
2	383	73	-1	2286
2	384	1392	-1	1770
2	385	1205	-1	3266
2	386	640	-1	4050
2	387	477	-1	2130
2	388	76	1	3196
2	389	703	-1	1784
2	390	1037	-1	1512
2	391	1151	-1	7398
2	392	1044	1	1358
2	393	149	1	1786
2	394	1072	-1	6318
2	395	324	1	1168
2	396	305	1	1166
2	397	775	-1	3102
2	398	837	-1	6524
2	399	627	1	9884
2	400	454	-1	3228
2	401	915	-1	3029
2	402	1089	-1	5458
2	403	1325	1	1316
2	404	169	1	2866
2	405	810	1	4364
2	406	1198	-1	1856
2	407	734	-1	5475
2	408	387	-1	3987
2	409	384	-1	5296
2	410	218	-1	1464
2	411	239	1	2036
2	412	116	-1	3886
2	413	513	-1	3868
2	414	532	-1	6330
2	415	1178	-1	4402
2	416	132	1	4550
2	417	432	-1	1732
2	418	935	-1	5310
2	419	735	-1	3244
2	420	283	1	7136
2	421	824	1	10034
2	422	923	-1	5492
2	423	1127	1	2930
2	424	1015	1	5498
2	425	1146	1	1818
2	426	66	-1	8020
2	427	1199	1	2006
2	428	856	-1	6532
2	429	10	1	4346
2	430	804	-1	4206
2	431	202	1	2844
2	432	1107	-1	5372
2	433	874	1	1605
2	434	70	-1	1443
2	435	1353	1	3923
2	436	1163	-1	1261
2	437	755	-1	1221
2	438	661	-1	1333
2	439	1324	1	1762
2	440	1175	-1	1182
2	441	417	-1	2200
2	442	9	-1	1960
2	443	47	1	2082
2	444	991	1	3345
2	445	426	1	3219
2	446	819	-1	1386
2	447	802	1	3172
2	448	1348	1	3134
2	449	1058	-1	1520
2	450	850	-1	1174
2	451	594	1	6070
2	452	1260	1	6492
2	453	419	-1	1356
2	454	1300	1	1880
2	455	859	-1	2404
2	456	318	-1	3954
2	457	948	1	3016
2	458	1384	-1	1668
2	459	521	1	1636
2	460	704	1	11196
2	461	1125	1	4001
2	462	1001	-1	3965
2	463	437	-1	3540
2	464	549	-1	5953
2	465	872	-1	2007
2	466	993	1	2067
2	467	1027	-1	1284
2	468	992	-1	1347
2	469	167	-1	1356
2	470	749	1	3381
2	471	733	1	3894
2	472	193	1	4018
2	473	480	1	3328
2	474	1140	-1	1467
2	475	919	-1	3671
2	476	1020	1	2485
2	477	1231	-1	1683
2	478	968	-1	1198
2	479	526	-1	4166
2	480	1225	-1	2014
2	481	827	-1	1754
2	482	529	-1	1480
2	483	3	-1	3078
2	484	709	-1	1356
2	485	846	-1	1778
2	486	86	-1	1920
2	487	1257	1	5138
2	488	399	-1	3384
2	489	1224	1	1770
2	490	666	1	2936
2	491	291	1	1929
2	492	525	1	4573
2	493	1103	-1	2068
2	494	817	-1	1338
2	495	1264	1	1371
2	496	338	1	2615
2	497	887	-1	5304
2	498	941	-1	2040
2	499	581	1	5070
2	500	937	-1	1606
2	501	275	-1	2549
2	502	1174	1	4190
2	503	407	-1	1184
2	504	553	1	1856
2	505	928	1	2716
2	506	679	1	2342
2	507	986	1	2616
2	508	1021	1	2176
2	509	260	-1	2060
2	510	873	-1	1434
2	511	933	1	4432
2	512	412	-1	1222
2	513	589	-1	1886
2	514	241	-1	1206
2	515	499	-1	2108
2	516	1288	1	5128
2	517	764	1	4942
2	518	908	1	3970
2	519	507	1	1574
2	520	270	1	2914
2	521	172	1	1832
2	522	1170	-1	1958
2	523	411	1	1488
2	524	920	1	1730
2	525	578	1	1556
2	526	728	1	1624
2	527	830	1	2960
2	528	1136	-1	7810
2	529	8	1	5014
2	530	1295	1	1596
2	531	1383	-1	1848
2	532	751	1	6408
2	533	1370	1	1778
2	534	1266	-1	2952
2	535	373	1	1426
2	536	1118	1	1410
2	537	989	1	3084
2	538	983	-1	1206
2	539	1077	1	4222
2	540	289	-1	7478
2	541	1066	-1	1966
2	542	462	1	2278
2	543	815	-1	3140
2	544	1016	1	3900
2	545	1376	-1	1238
2	546	203	-1	1080
2	547	921	-1	1214
2	548	1071	1	4152
2	549	871	-1	1464
2	550	611	-1	2648
2	551	955	1	2216
2	552	326	1	3414
2	553	221	-1	1324
2	554	1350	-1	1174
2	555	393	1	2506
2	556	509	-1	2866
2	557	648	-1	1778
2	558	244	-1	2656
2	559	725	1	5654
2	560	309	1	2202
2	561	236	-1	2490
2	562	1327	-1	2860
2	563	1068	1	2098
2	564	1158	-1	3016
2	565	15	-1	6578
2	566	313	1	1294
2	567	1022	1	4166
2	568	1359	-1	2363
2	569	945	1	14053
2	570	985	-1	1596
2	571	440	1	3798
2	572	942	-1	2788
2	573	1143	-1	2014
2	574	1246	-1	3092
2	575	1303	-1	4010
2	576	281	1	1512
2	577	1008	-1	1620
2	578	876	1	8310
2	579	1164	1	3032
2	580	61	-1	3102
2	581	701	-1	6650
2	582	724	1	6422
2	583	100	1	2210
2	584	780	1	1174
2	585	1228	1	1338
2	586	188	1	2060
2	587	451	-1	1198
2	588	869	-1	1810
2	589	1195	-1	1246
2	590	496	-1	2740
2	591	851	1	1904
2	592	705	1	2176
2	593	369	-1	6022
2	594	1003	-1	3602
2	595	168	-1	2076
2	596	777	-1	4018
2	597	767	1	2514
2	598	1364	-1	9374
2	599	1104	-1	2430
2	600	460	-1	5588
2	601	450	1	3155
2	602	381	-1	1410
2	603	1052	-1	1432
2	604	1192	-1	4324
2	605	997	-1	3172
2	606	478	1	5802
2	607	197	1	4698
2	608	1373	1	1276
2	609	999	1	2036
2	610	163	1	2302
2	611	946	1	3682
2	612	420	1	4558
2	613	497	1	4792
2	614	421	1	1794
2	615	716	-1	1338
2	616	916	1	1668
2	617	1238	-1	1566
2	618	894	1	5090
2	619	1083	1	8622
2	620	925	-1	2490
2	621	597	1	3062
2	622	328	1	4912
2	623	613	-1	6672
2	624	191	1	1942
2	625	794	1	2020
2	626	479	-1	1958
2	627	840	1	4456
2	628	481	1	5514
2	629	1217	-1	1434
2	630	166	-1	1878
2	631	1284	1	1230
2	632	1204	1	2662
2	633	17	-1	2576
2	634	161	1	4136
2	635	582	1	1996
2	636	486	1	2482
2	637	554	-1	1888
2	638	36	-1	3728
2	639	1094	-1	1754
2	640	762	-1	3522
2	641	897	-1	1638
2	642	181	1	1566
2	643	1126	-1	3930
2	644	468	-1	1504
2	645	1138	1	1410
2	646	14	1	1574
2	647	1006	1	3124
2	648	502	1	6256
2	649	769	1	1504
2	650	467	1	6672
2	651	774	1	2280
2	652	1007	1	8488
2	653	1249	1	1079
2	654	210	1	1817
2	655	612	1	3094
2	656	898	1	1612
2	657	996	-1	3609
2	658	367	-1	2781
2	659	295	1	1168
2	660	1177	-1	3360
2	661	224	1	5646
2	662	1380	1	2568
2	663	424	-1	4111
2	664	473	-1	4417
2	665	1341	-1	3368
2	666	505	-1	1448
2	667	669	-1	2403
2	668	92	1	4722
2	669	329	1	4803
2	670	1211	-1	2122
2	671	523	1	3712
2	672	465	1	1831
2	673	629	1	2217
2	674	1272	1	6775
2	675	360	1	3305
2	676	1091	1	6343
2	677	1096	1	2246
2	678	1220	-1	1357
2	679	1399	-1	4343
2	680	42	-1	3948
2	681	46	1	2232
2	682	327	1	4488
2	683	386	1	3460
2	684	1	1	2114
2	685	136	-1	1754
2	686	877	-1	1910
2	687	886	-1	2348
2	688	1065	1	3158
2	689	91	-1	1384
2	690	385	1	2928
2	691	1273	-1	1840
2	692	1060	1	3790
2	693	796	1	6930
2	694	177	1	1668
2	695	642	1	2130
2	696	1214	-1	2944
2	697	599	-1	1282
2	698	1349	-1	1332
2	699	1049	-1	2936
2	700	1078	1	1730
2	701	797	-1	3913
2	702	1047	-1	3320
2	703	1012	-1	1996
2	704	617	1	2860
2	705	686	1	2904
2	706	297	-1	1294
2	707	247	-1	1362
2	708	823	1	1590
2	709	32	-1	2836
2	710	174	-1	1564
2	711	276	-1	2074
2	712	491	-1	3752
2	713	24	1	1404
2	714	1112	1	1594
2	715	522	-1	1958
2	716	1398	-1	1772
2	717	1345	-1	2714
2	718	176	1	3202
2	719	195	-1	1998
2	720	855	1	2474
2	721	1243	-1	3118
2	722	1069	-1	1330
2	723	681	1	3720
2	724	643	-1	4034
2	725	434	-1	2506
2	726	442	1	1160
2	727	1023	-1	1268
2	728	892	-1	1136
2	729	1149	-1	1260
2	730	752	-1	1668
2	731	246	1	1544
2	732	943	-1	3696
2	733	1241	1	1128
2	734	93	1	1236
2	735	185	-1	1426
2	736	1171	1	2662
2	737	314	1	1778
2	738	1039	-1	1856
2	739	615	1	1940
2	740	463	-1	1574
2	741	1115	-1	1888
2	742	350	1	2262
2	743	1207	1	1246
2	744	503	-1	1754
2	745	366	-1	1800
2	746	1369	-1	3672
2	747	217	1	1160
2	748	436	-1	2176
2	749	1229	-1	3234
2	750	1319	-1	4378
2	751	697	1	962
2	752	537	1	1168
2	753	773	-1	1660
2	754	1162	1	1636
2	755	294	1	1144
2	756	44	1	3006
2	757	1387	-1	2066
2	758	333	-1	2844
2	759	290	-1	4118
2	760	698	1	1222
2	761	201	1	1768
2	762	960	-1	2076
2	763	1391	1	2598
2	764	706	1	1480
2	765	1160	1	2976
2	766	1105	1	2270
2	767	122	-1	2090
2	768	1281	1	2216
2	769	495	1	1558
2	770	1137	1	1646
2	771	379	1	1666
2	772	101	-1	4588
2	773	490	1	2552
2	774	835	-1	4988
2	775	687	1	1582
2	776	1256	1	2028
2	777	332	1	2060
2	778	641	1	1830
2	779	841	1	4854
2	780	348	1	1730
2	781	33	1	3712
2	782	699	1	1572
2	783	1048	-1	2310
2	784	1368	1	1040
2	785	672	-1	5834
2	786	1294	1	2872
2	787	99	1	1698
2	788	1328	-1	5090
2	789	982	1	8336
2	790	650	-1	6216
2	791	103	-1	1864
2	792	812	-1	2520
2	793	633	1	3280
2	794	1393	-1	4166
2	795	347	1	1432
2	796	565	1	2968
2	797	1292	1	2020
2	798	364	-1	4156
2	799	1197	1	1378
2	800	931	1	4118
2	801	820	-1	4041
2	802	918	1	3664
2	803	5	1	2184
2	804	1357	-1	4032
2	805	254	1	3382
2	806	494	1	1808
2	807	618	1	4908
2	808	792	-1	1550
2	809	963	1	3484
2	810	234	-1	9796
2	811	1344	-1	2442
2	812	1117	1	3162
2	813	712	-1	2082
2	814	961	1	1574
2	815	1362	1	2302
2	816	951	1	2082
2	817	410	-1	4486
2	818	1062	-1	4314
2	819	588	-1	2756
2	820	580	1	1368
2	821	425	1	1652
2	822	1152	-1	1042
2	823	1113	1	3052
2	824	406	-1	1174
2	825	956	-1	4908
2	826	180	-1	1700
2	827	209	1	1134
2	828	1040	1	1410
2	829	325	1	2114
2	830	930	-1	1236
2	831	632	-1	1268
2	832	311	-1	1464
2	833	1366	-1	3828
2	834	1382	-1	1682
2	835	1005	1	1526
2	836	1342	1	1864
2	837	90	-1	1308
2	838	747	1	1620
2	839	1213	-1	1088
2	840	140	-1	1714
2	841	18	1	2646
2	842	371	1	1300
2	843	726	1	3406
2	844	1390	-1	2450
2	845	1050	1	5816
2	846	56	-1	2254
2	847	292	1	3946
2	848	603	1	6700
2	849	232	-1	4376
2	850	401	1	1356
2	851	345	-1	3670
2	852	148	-1	1832
2	853	987	-1	2326
2	854	600	1	2198
2	855	1161	-1	1926
2	856	740	-1	3248
2	857	929	1	1168
2	858	1240	1	1150
2	859	363	1	2872
2	860	1100	1	2194
2	861	1145	-1	1658
2	862	1306	-1	2968
2	863	274	-1	2834
2	864	821	1	5480
2	865	896	-1	2834
2	866	370	-1	1644
2	867	1313	-1	3404
2	868	84	-1	1644
2	869	89	1	1564
2	870	469	1	1536
2	871	179	-1	1298
2	872	1400	-1	1512
2	873	67	1	3146
2	874	786	-1	4298
2	875	390	1	4564
2	876	34	-1	3226
2	877	154	1	1580
2	878	1307	1	1426
2	879	80	1	2074
2	880	51	-1	5612
2	881	408	-1	2490
2	882	82	1	2824
2	883	843	-1	1246
2	884	718	-1	1244
2	885	990	1	1950
2	886	438	-1	2590
2	887	1128	1	5370
2	888	484	1	1308
2	889	13	-1	1526
2	890	272	1	2662
2	891	253	-1	1752
2	892	340	1	1528
2	893	647	1	2434
2	894	598	-1	2066
2	895	452	-1	1338
2	896	358	-1	2226
2	897	361	1	1962
2	898	69	1	1808
2	899	675	-1	4124
2	900	1347	-1	1604
2	901	567	-1	1855
2	902	619	-1	1526
2	903	243	1	1816
2	904	249	-1	1760
2	905	607	1	1910
2	906	907	1	1644
2	907	212	1	1902
2	908	183	-1	1166
2	909	602	-1	1300
2	910	826	1	1792
2	911	569	1	1830
2	912	994	1	5520
2	913	1200	1	2136
2	914	137	1	4314
2	915	159	-1	1102
2	916	1092	-1	1769
2	917	832	-1	1073
2	918	949	1	1988
2	919	4	-1	2036
2	920	1067	-1	2848
2	921	556	1	1370
2	922	1053	-1	1566
2	923	105	1	2756
2	924	388	1	2238
2	925	378	1	4470
2	926	1081	-1	1948
2	927	261	1	2560
2	928	1233	-1	1440
2	929	433	1	1254
2	930	302	-1	1542
2	931	248	-1	1642
2	932	282	-1	1292
2	933	793	-1	4126
2	934	398	1	2520
2	935	501	-1	1964
2	936	1086	1	1550
2	937	795	1	1636
2	938	300	1	1228
2	939	621	-1	1222
2	940	1074	1	1206
2	941	660	1	1728
2	942	268	1	2710
2	943	1203	1	1306
2	944	511	1	1668
2	945	405	1	2488
2	946	88	-1	2066
2	947	1268	1	1050
2	948	976	1	1502
2	949	54	-1	3954
2	950	682	-1	2168
2	951	464	-1	3788
2	952	1367	1	2998
2	953	670	1	1204
2	954	1262	1	1816
2	955	543	1	1628
2	956	625	-1	1158
2	957	493	1	1440
2	958	1080	1	1886
2	959	683	-1	4163
2	960	441	-1	2841
2	961	576	1	1066
2	962	973	-1	1236
2	963	678	1	2004
2	964	748	1	5024
2	965	196	1	2882
2	966	579	1	1088
2	967	1090	1	1416
2	968	1183	1	4392
2	969	1186	1	1712
2	970	377	-1	9174
2	971	303	-1	3858
2	972	914	-1	4352
2	973	404	-1	1974
2	974	1216	1	2528
2	975	680	1	4312
2	976	806	1	2981
2	977	1312	-1	2333
2	978	1054	-1	3006
2	979	173	1	1330
2	980	395	1	1676
2	981	798	-1	4390
2	982	901	1	1534
2	983	446	-1	3397
2	984	457	-1	1589
2	985	707	1	2121
2	986	1277	-1	1668
2	987	1059	-1	1104
2	988	630	1	1362
2	989	1142	-1	1315
2	990	284	1	1463
2	991	1321	-1	11304
2	992	799	-1	3296
2	993	1269	1	2027
2	994	1394	-1	2519
2	995	573	1	2114
2	996	649	-1	3812
2	997	875	1	1408
2	998	722	-1	3384
2	999	782	1	1368
2	1000	904	1	1480
2	1001	789	-1	1821
2	1002	1035	1	1950
2	1003	702	-1	4882
2	1004	226	-1	2348
2	1005	1354	-1	3586
2	1006	530	-1	3162
2	1007	63	1	1338
2	1008	825	1	1628
2	1009	653	1	2896
2	1010	429	-1	1214
2	1011	831	-1	1102
2	1012	787	-1	2404
2	1013	134	-1	2558
2	1014	742	1	2294
2	1015	1063	-1	1120
2	1016	853	-1	2230
2	1017	527	-1	1886
2	1018	634	1	1676
2	1019	444	-1	1644
2	1020	1079	1	1534
2	1021	65	1	1808
2	1022	880	-1	2308
2	1023	805	1	2528
2	1024	1209	1	1136
2	1025	807	-1	1096
2	1026	1076	-1	2504
2	1027	1234	1	1088
2	1028	870	-1	1297
2	1029	1296	1	3165
2	1030	1191	-1	1448
2	1031	304	-1	3154
2	1032	1258	1	2600
2	1033	392	1	1510
2	1034	487	1	1542
2	1035	22	1	1784
2	1036	857	1	1938
2	1037	524	1	2008
2	1038	593	-1	1526
2	1039	349	-1	1437
2	1040	1101	1	1561
2	1041	691	1	3826
2	1042	577	-1	3046
2	1043	1134	1	2254
2	1044	1244	1	6794
2	1045	508	1	1596
2	1046	756	-1	5510
2	1047	849	1	1480
2	1048	1095	-1	1628
2	1049	1297	1	3076
2	1050	488	1	2716
2	1051	957	-1	1212
2	1052	1270	1	2576
2	1053	1120	1	1456
2	1054	77	-1	1260
2	1055	1019	1	1432
2	1056	714	-1	4438
2	1057	27	-1	1784
2	1058	1184	-1	11304
2	1059	717	-1	3938
2	1060	596	1	5918
2	1061	162	-1	1212
2	1062	204	-1	3162
2	1063	575	-1	1042
2	1064	1310	1	42984
2	1065	186	-1	1582
2	1066	449	1	2157
2	1067	512	1	6719
2	1068	750	-1	4186
2	1069	200	-1	4140
2	1070	864	-1	2294
2	1071	365	1	3982
2	1072	1336	-1	2168
2	1073	560	1	6232
2	1074	657	1	2894
2	1075	828	1	1926
2	1076	1124	-1	1480
2	1077	415	-1	7888
2	1078	296	1	1040
2	1079	891	1	3860
2	1080	315	1	2950
2	1081	651	-1	1502
2	1082	102	1	5182
2	1083	78	1	49868
2	1084	674	1	12932
2	1085	278	1	2630
2	1086	339	-1	1378
2	1087	519	-1	3716
2	1088	1168	1	1858
2	1089	719	1	2948
2	1090	1285	1	5714
2	1091	811	-1	1566
2	1092	1352	-1	1636
2	1093	622	-1	4892
2	1094	45	-1	1902
2	1095	685	1	1501
2	1096	126	-1	1239
2	1097	115	-1	1198
2	1098	1036	1	2464
2	1099	953	-1	1434
2	1100	591	-1	1580
2	1101	151	-1	1629
2	1102	461	1	3022
2	1103	558	-1	18028
2	1104	542	1	2222
2	1105	909	1	2896
2	1106	836	1	1722
2	1107	1014	-1	3460
2	1108	64	1	2598
2	1109	1365	1	1340
2	1110	1122	-1	2958
2	1111	852	1	3146
2	1112	761	-1	1166
2	1113	536	1	2802
2	1114	601	-1	2168
2	1115	842	-1	1808
2	1116	571	1	2732
2	1117	784	-1	1558
2	1118	620	-1	5274
2	1119	123	-1	1222
2	1120	30	-1	4688
2	1121	813	-1	1840
2	1122	1041	-1	4102
2	1123	555	-1	3434
2	1124	1085	-1	1582
2	1125	533	-1	4594
2	1126	158	1	3672
2	1127	121	1	4320
2	1128	844	-1	2864
2	1129	952	-1	3210
2	1130	900	1	3382
2	1131	41	-1	3302
2	1132	107	1	2732
2	1133	346	-1	9902
2	1134	445	1	2606
2	1135	298	-1	2458
2	1136	157	1	3192
2	1137	1182	-1	1588
2	1138	967	-1	3014
2	1139	1169	1	3178
2	1140	721	-1	1869
2	1141	738	1	4221
2	1142	1130	-1	2746
2	1143	372	-1	1590
2	1144	848	-1	2090
2	1145	317	1	5324
2	1146	1309	1	2034
2	1147	1265	1	2334
2	1148	435	-1	3638
2	1149	231	-1	2482
2	1150	834	-1	2192
2	1151	1298	1	2302
2	1152	1042	-1	3616
2	1153	763	1	3914
2	1154	135	-1	3060
2	1155	178	-1	1628
2	1156	337	1	1424
2	1157	978	1	4728
2	1158	1236	1	4250
2	1159	899	1	2222
2	1160	213	-1	6009
2	1161	430	-1	1169
2	1162	969	-1	1792
2	1163	1153	-1	3240
2	1164	1332	1	1994
2	1165	1073	-1	3430
2	1166	50	1	3178
2	1167	160	-1	1276
2	1168	776	-1	1572
2	1169	538	-1	1394
2	1170	868	1	1840
2	1171	924	1	3498
2	1172	903	-1	4172
2	1173	256	-1	2410
2	1174	1018	1	2106
2	1175	881	-1	1322
2	1176	194	1	14558
2	1177	418	1	1816
2	1178	1002	1	1542
2	1179	739	-1	1292
2	1180	1119	1	2292
2	1181	528	-1	1198
2	1182	1013	1	2568
2	1183	368	-1	2292
2	1184	1176	-1	13250
2	1185	662	1	1518
2	1186	269	1	2420
2	1187	1318	-1	3380
2	1188	79	-1	1698
2	1189	1358	1	4758
2	1190	1093	-1	2566
2	1191	1011	1	2246
2	1192	471	-1	2302
2	1193	400	1	2464
2	1194	312	1	1762
2	1195	779	1	8436
2	1196	35	-1	1606
2	1197	515	1	1822
2	1198	485	1	1386
2	1199	936	-1	3014
2	1200	359	1	1851
2	1201	104	-1	1280
2	1202	458	1	1864
2	1203	2	1	2920
2	1204	362	1	3004
2	1205	814	-1	1418
2	1206	228	-1	6714
2	1207	1311	-1	2381
2	1208	595	1	1345
2	1209	570	-1	4908
2	1210	1206	1	2504
2	1211	926	1	4078
2	1212	250	1	1520
2	1213	1235	1	2566
2	1214	96	-1	4750
2	1215	87	-1	4000
2	1216	1232	1	1792
2	1217	1343	-1	3546
2	1218	394	-1	1752
2	1219	352	-1	1730
2	1220	1320	1	6488
2	1221	1222	1	2373
2	1222	182	-1	2981
2	1223	1334	1	1932
2	1224	475	1	1456
2	1225	723	1	2208
2	1226	409	1	1392
2	1227	389	1	1534
2	1228	663	-1	3766
2	1229	889	-1	2098
2	1230	456	-1	2394
2	1231	551	1	3397
2	1232	144	-1	1807
2	1233	74	1	1864
2	1234	1259	1	2574
2	1235	1215	1	3264
2	1236	129	-1	3380
2	1237	1139	1	1472
2	1238	189	1	4234
2	1239	1261	1	3804
2	1240	1289	1	1494
2	1241	1028	-1	1260
2	1242	1248	1	1088
2	1243	316	1	1166
2	1244	208	1	1448
2	1245	238	-1	1354
2	1246	788	-1	1316
2	1247	694	-1	1424
2	1248	335	1	3670
2	1249	310	1	6058
2	1250	139	-1	1346
2	1251	240	-1	1636
2	1252	336	-1	1104
2	1253	975	-1	1862
2	1254	75	-1	1338
2	1255	207	-1	2482
2	1256	1315	1	3336
2	1257	380	1	10646
2	1258	1395	-1	1762
2	1259	1351	1	5612
2	1260	428	-1	1388
2	1261	500	-1	3550
2	1262	215	1	1644
2	1263	1032	1	2434
2	1264	1121	1	4306
2	1265	83	-1	1346
2	1266	38	-1	1182
2	1267	506	1	2584
2	1268	1082	-1	1720
2	1269	1173	1	2302
2	1270	879	1	6206
2	1271	109	-1	2474
2	1272	605	1	2740
2	1273	222	1	2800
2	1274	818	-1	1426
2	1275	130	-1	3122
2	1276	476	-1	2042
2	1277	646	1	1582
2	1278	944	-1	4256
2	1279	1371	1	2200
2	1280	790	-1	1494
2	1281	95	-1	1230
2	1282	974	-1	5610
2	1283	866	-1	1980
2	1284	1293	-1	8812
2	1285	1033	-1	5768
2	1286	31	-1	6104
2	1287	559	-1	5448
2	1288	1356	-1	1604
2	1289	1201	1	2114
2	1290	1372	1	1518
2	1291	375	-1	1440
2	1292	263	1	1566
2	1293	550	1	1682
2	1294	11	1	2238
2	1295	242	-1	1832
2	1296	1129	1	2166
2	1297	847	-1	1974
2	1298	845	1	1354
2	1299	223	1	1620
2	1300	861	-1	3468
2	1301	631	1	2159
2	1302	917	1	1410
2	1303	1098	1	1502
2	1304	561	-1	4298
2	1305	867	1	4078
2	1306	1181	1	1792
2	1307	1330	1	1980
2	1308	584	-1	1698
2	1309	229	1	12162
2	1310	1148	1	1910
2	1311	1221	1	1216
2	1312	1116	1	2744
2	1313	1271	-1	2770
2	1314	829	-1	1386
2	1315	1147	-1	2999
2	1316	192	-1	1923
2	1317	255	-1	2356
2	1318	862	-1	1730
2	1319	1084	1	2606
2	1320	125	-1	31744
2	1321	1123	-1	1354
2	1322	1242	1	6770
2	1323	638	1	4376
2	1324	1377	1	1048
2	1325	416	-1	3006
2	1326	906	1	1354
2	1327	1331	1	1494
2	1328	1314	-1	1856
2	1329	552	-1	1486
2	1330	128	1	1792
2	1331	770	1	1402
2	1332	60	-1	10738
2	1333	321	-1	1838
2	1334	800	-1	2654
2	1335	1230	1	2010
2	1336	396	-1	1988
2	1337	1360	1	1864
2	1338	667	1	1486
2	1339	320	-1	1330
2	1340	330	1	18828
2	1341	1237	1	1010
2	1342	198	-1	2380
2	1343	910	1	3764
2	1344	520	1	1784
2	1345	1193	1	3424
2	1346	668	-1	9836
2	1347	376	-1	424
2	1348	443	-1	202
2	1349	692	-1	338
2	1350	21	-1	180
2	1351	854	-1	172
2	1352	287	-1	180
2	1353	489	-1	180
2	1354	1087	-1	180
2	1355	29	-1	181
2	1356	1389	-1	179
2	1357	758	-1	188
2	1358	1110	-1	194
2	1359	677	-1	180
2	1360	732	-1	180
2	1361	164	-1	196
2	1362	119	-1	188
2	1363	383	-1	188
2	1364	277	-1	196
2	1365	927	-1	204
2	1366	546	-1	188
2	1367	1088	-1	196
2	1368	1355	-1	180
2	1369	1282	-1	194
2	1370	1102	-1	180
2	1371	422	-1	196
2	1372	911	-1	204
2	1373	145	-1	196
2	1374	696	-1	180
2	1375	731	-1	188
2	1376	659	-1	197
2	1377	7	-1	171
2	1378	1223	-1	188
2	1379	357	-1	194
2	1380	402	-1	196
2	1381	883	-1	188
2	1382	482	-1	196
2	1383	258	-1	523
2	1384	1326	-1	2
2	1385	1283	-1	31
2	1386	323	-1	188
2	1387	531	-1	196
2	1388	1208	-1	194
2	1389	1024	-1	196
2	1390	1070	-1	243
2	1391	962	-1	149
2	1392	423	-1	204
2	1393	673	-1	188
2	1394	319	-1	196
2	1395	43	-1	194
2	1396	1388	-1	188
2	1397	1056	-1	212
2	1398	759	-1	188
2	1399	55	-1	196
2	1400	715	-1	188
3	1	1110	1	195006
3	2	1396	1	1090
3	3	1353	1	1748
3	4	252	-1	1053
3	5	1268	1	938
3	6	144	-1	1115
3	7	1153	1	1022
3	8	313	1	1065
3	9	1265	1	941
3	10	471	1	1247
3	11	878	1	1062
3	12	975	-1	1316
3	13	1130	1	1115
3	14	1317	1	1278
3	15	630	1	1306
3	16	3	-1	1318
3	17	829	-1	1365
3	18	1080	1	1144
3	19	906	-1	1535
3	20	1216	1	1265
3	21	873	1	2544
3	22	149	-1	965
3	23	415	1	987
3	24	356	-1	1104
3	25	1113	1	980
3	26	586	1	1119
3	27	77	-1	1172
3	28	423	-1	1100
3	29	451	1	1069
3	30	150	1	1439
3	31	449	1	1081
3	32	270	1	2049
3	33	1321	-1	1179
3	34	1181	-1	1653
3	35	785	-1	1643
3	36	1266	-1	1340
3	37	1272	1	864
3	38	1041	-1	1195
3	39	879	1	1436
3	40	811	1	1230
3	41	1295	-1	1533
3	42	639	-1	1215
3	43	995	1	764
3	44	1304	-1	1355
3	45	53	-1	1201
3	46	170	1	1155
3	47	84	1	1189
3	48	446	1	1110
3	49	1369	-1	1345
3	50	274	1	1295
3	51	218	-1	1047
3	52	303	-1	1314
3	53	1224	1	1161
3	54	298	-1	1126
3	55	1390	1	1330
3	56	1165	1	1273
3	57	1118	-1	1614
3	58	201	1	803
3	59	1213	-1	1203
3	60	594	1	1012
3	61	334	1	1806
3	62	1120	1	1136
3	63	1383	-1	1455
3	64	1132	-1	1221
3	65	591	1	858
3	66	1156	1	3684
3	67	54	1	1021
3	68	486	1	1435
3	69	1021	1	1264
3	70	297	-1	1163
3	71	1330	1	708
3	72	584	1	1027
3	73	1289	-1	1098
3	74	614	-1	1075
3	75	547	-1	1204
3	76	34	-1	1326
3	77	1206	-1	1096
3	78	279	1	849
3	79	558	-1	990
3	80	367	1	782
3	81	1007	1	1145
3	82	460	-1	1161
3	83	825	1	837
3	84	288	1	1503
3	85	32	1	1780
3	86	1014	1	882
3	87	1161	1	1257
3	88	608	1	880
3	89	1357	-1	1937
3	90	1054	-1	1111
3	91	530	1	1476
3	92	355	1	797
3	93	55	1	1379
3	94	115	-1	1429
3	95	978	1	1240
3	96	990	1	1228
3	97	1147	1	1650
3	98	1326	-1	1039
3	99	1193	-1	1491
3	100	489	1	1465
3	101	1264	1	1777
3	102	682	1	650
3	103	1395	-1	1020
3	104	352	1	1088
3	105	354	1	998
3	106	1144	-1	1905
3	107	1307	-1	2214
3	108	1387	-1	1014
3	109	336	1	1186
3	110	823	1	1078
3	111	248	1	1051
3	112	706	1	1156
3	113	109	1	1264
3	114	556	1	1358
3	115	183	1	1334
3	116	1389	1	1307
3	117	1293	1	1630
3	118	147	-1	1207
3	119	282	1	1013
3	120	655	1	1982
3	121	1256	-1	1174
3	122	1239	1	1101
3	123	42	1	1064
3	124	1311	-1	1089
3	125	9	-1	1364
3	126	262	1	978
3	127	255	-1	2093
3	128	527	1	972
3	129	330	-1	1451
3	130	1275	1	1027
3	131	554	-1	1222
3	132	465	1	1014
3	133	867	-1	1341
3	134	188	-1	1068
3	135	739	-1	1763
3	136	1392	-1	1220
3	137	1276	1	835
3	138	371	-1	1554
3	139	836	-1	958
3	140	517	-1	1317
3	141	526	-1	1169
3	142	306	1	728
3	143	1283	-1	1061
3	144	411	-1	997
3	145	453	-1	1148
3	146	734	1	821
3	147	519	-1	1376
3	148	407	1	979
3	149	1333	1	1273
3	150	762	1	946
3	151	1233	-1	1472
3	152	399	-1	1136
3	153	683	1	1324
3	154	1004	1	981
3	155	1362	1	1130
3	156	918	1	1020
3	157	392	1	1554
3	158	1168	1	1262
3	159	748	1	1241
3	160	560	1	2244
3	161	768	-1	1113
3	162	932	1	1690
3	163	1045	-1	2216
3	164	919	1	1132
3	165	153	-1	1142
3	166	1210	-1	2380
3	167	477	-1	2265
3	168	1355	1	1433
3	169	364	-1	1026
3	170	962	-1	1221
3	171	410	-1	1438
3	172	360	-1	1229
3	173	941	-1	1140
3	174	738	1	2122
3	175	1267	-1	1079
3	176	302	-1	1223
3	177	206	-1	1315
3	178	31	1	1129
3	179	397	-1	1887
3	180	1011	1	1274
3	181	1070	-1	1917
3	182	385	1	1105
3	183	1043	-1	1337
3	184	1261	1	1240
3	185	1203	1	1250
3	186	1073	1	1812
3	187	381	1	1017
3	188	419	1	1471
3	189	1325	-1	1325
3	190	236	1	1504
3	191	851	1	1069
3	192	629	1	1282
3	193	135	1	1185
3	194	114	1	1246
3	195	544	1	1140
3	196	1121	1	2626
3	197	651	1	1566
3	198	1152	-1	2006
3	199	353	1	1010
3	200	525	-1	1179
3	201	1099	1	1726
3	202	961	1	947
3	203	514	1	1263
3	204	928	1	1219
3	205	98	1	1386
3	206	1105	-1	1197
3	207	592	1	1191
3	208	617	-1	1379
3	209	593	-1	1089
3	210	48	1	2204
3	211	71	1	1189
3	212	1336	1	1666
3	213	22	-1	2542
3	214	578	-1	1237
3	215	1252	-1	1173
3	216	15	-1	1243
3	217	729	1	891
3	218	1053	-1	930
3	219	1175	1	871
3	220	602	-1	1022
3	221	459	-1	1360
3	222	319	-1	1030
3	223	436	-1	1960
3	224	937	1	1239
3	225	985	1	1513
3	226	658	1	1688
3	227	753	1	1134
3	228	244	-1	1432
3	229	272	1	581
3	230	733	1	1359
3	231	1033	1	1490
3	232	1112	1	1591
3	233	1190	1	929
3	234	949	1	1217
3	235	1318	1	995
3	236	151	-1	1140
3	237	384	-1	1095
3	238	1169	-1	1355
3	239	67	1	820
3	240	521	-1	1104
3	241	859	1	1236
3	242	1364	1	904
3	243	988	-1	1070
3	244	1192	1	1156
3	245	328	1	1065
3	246	254	-1	1643
3	247	1164	-1	1307
3	248	314	1	988
3	249	761	-1	923
3	250	444	1	1416
3	251	1204	1	1134
3	252	634	-1	900
3	253	694	-1	1181
3	254	316	-1	1165
3	255	211	-1	1184
3	256	895	-1	999
3	257	837	-1	1526
3	258	1151	-1	998
3	259	831	-1	945
3	260	21	-1	1635
3	261	506	1	1470
3	262	1184	1	1667
3	263	667	-1	1082
3	264	1078	-1	959
3	265	321	1	1639
3	266	1235	1	994
3	267	1346	-1	1445
3	268	1086	1	1679
3	269	131	-1	1273
3	270	953	-1	1018
3	271	1386	1	1128
3	272	200	-1	1710
3	273	225	-1	1089
3	274	1341	1	963
3	275	884	-1	1398
3	276	124	-1	1276
3	277	93	1	926
3	278	1154	-1	1429
3	279	1212	1	1052
3	280	156	-1	1855
3	281	240	-1	1246
3	282	403	-1	1369
3	283	479	-1	1323
3	284	1188	-1	1774
3	285	669	-1	1184
3	286	234	1	1512
3	287	394	-1	1646
3	288	696	1	1065
3	289	553	1	1228
3	290	763	1	1156
3	291	257	1	1367
3	292	520	1	1167
3	293	136	-1	1521
3	294	1331	1	1797
3	295	125	1	1173
3	296	39	-1	2028
3	297	245	-1	1971
3	298	969	-1	1247
3	299	242	-1	1233
3	300	522	-1	1504
3	301	840	-1	1826
3	302	620	1	805
3	303	70	1	1107
3	304	1377	1	886
3	305	671	1	1181
3	306	717	1	917
3	307	111	1	1181
3	308	911	-1	1113
3	309	100	1	1063
3	310	1050	1	1128
3	311	1024	-1	1094
3	312	883	-1	1233
3	313	745	-1	999
3	314	289	-1	1513
3	315	1157	-1	1110
3	316	49	-1	1237
3	317	832	-1	1605
3	318	1036	1	956
3	319	1248	1	1184
3	320	772	1	1324
3	321	197	1	1285
3	322	1303	1	1002
3	323	238	1	876
3	324	979	-1	1862
3	325	540	1	1012
3	326	440	1	1052
3	327	541	1	1072
3	328	1299	1	1030
3	329	17	-1	1648
3	330	404	-1	967
3	331	934	-1	1121
3	332	567	-1	1718
3	333	470	1	727
3	334	159	-1	1089
3	335	198	1	726
3	336	1241	1	968
3	337	852	1	1303
3	338	1028	1	917
3	339	229	1	1118
3	340	213	-1	1092
3	341	740	-1	1095
3	342	647	1	1270
3	343	1323	-1	1087
3	344	110	-1	1125
3	345	1173	-1	1046
3	346	798	1	1048
3	347	261	-1	873
3	348	939	1	944
3	349	402	1	1790
3	350	755	1	1288
3	351	709	-1	1061
3	352	426	1	1259
3	353	66	1	1126
3	354	1385	1	834
3	355	293	1	1366
3	356	1294	1	1131
3	357	1217	1	1819
3	358	75	-1	2337
3	359	767	1	1613
3	360	83	-1	1255
3	361	461	-1	1612
3	362	991	-1	1055
3	363	1319	-1	1282
3	364	1361	-1	1548
3	365	36	-1	1217
3	366	724	-1	1160
3	367	113	-1	993
3	368	613	-1	921
3	369	1242	-1	955
3	370	942	-1	1512
3	371	869	1	1141
3	372	993	-1	1364
3	373	127	1	898
3	374	427	-1	1149
3	375	642	-1	1060
3	376	1	-1	1049
3	377	787	1	845
3	378	736	-1	883
3	379	674	-1	1022
3	380	1254	-1	924
3	381	94	1	839
3	382	1234	-1	849
3	383	195	1	1194
3	384	702	1	1158
3	385	1017	1	1258
3	386	595	1	1230
3	387	430	-1	1156
3	388	231	1	1182
3	389	1376	1	1012
3	390	1012	1	1299
3	391	1095	1	1807
3	392	1223	-1	1153
3	393	711	1	1453
3	394	1189	1	1916
3	395	363	1	1694
3	396	1015	1	1401
3	397	1172	-1	433
3	398	781	1	1279
3	399	660	-1	1237
3	400	1107	1	901
3	401	628	-1	775
3	402	841	-1	820
3	403	600	1	753
3	404	1214	-1	1141
3	405	636	-1	1025
3	406	329	1	1547
3	407	122	1	1773
3	408	899	1	1015
3	409	375	1	1113
3	410	580	1	1238
3	411	1394	1	1211
3	412	1342	1	1128
3	413	1219	1	1056
3	414	368	-1	1437
3	415	1062	1	843
3	416	646	1	1072
3	417	498	-1	1338
3	418	860	1	1287
3	419	984	1	1292
3	420	454	1	939
3	421	802	-1	1179
3	422	1358	-1	1251
3	423	566	-1	1485
3	424	971	-1	1244
3	425	775	1	915
3	426	199	-1	1101
3	427	810	-1	1198
3	428	1269	-1	1006
3	429	95	1	954
3	430	493	1	1147
3	431	1124	1	999
3	432	1125	1	1565
3	433	140	1	1095
3	434	545	1	1098
3	435	341	1	977
3	436	1388	1	1062
3	437	497	-1	1866
3	438	491	1	1276
3	439	861	-1	917
3	440	644	1	1599
3	441	637	1	1270
3	442	524	-1	1231
3	443	632	1	994
3	444	1042	-1	1460
3	445	714	1	1786
3	446	1201	-1	1252
3	447	672	1	938
3	448	322	-1	1312
3	449	1010	1	972
3	450	678	1	934
3	451	11	1	1046
3	452	429	-1	1302
3	453	1160	1	1109
3	454	88	-1	1566
3	455	485	1	1567
3	456	12	1	2022
3	457	821	1	1221
3	458	23	1	1511
3	459	951	1	1153
3	460	138	1	1062
3	461	893	-1	1082
3	462	1064	1	895
3	463	340	-1	1314
3	464	41	1	730
3	465	1178	1	1216
3	466	742	-1	1077
3	467	1182	1	1351
3	468	202	-1	1289
3	469	510	1	943
3	470	382	-1	1509
3	471	1067	1	1095
3	472	177	-1	986
3	473	80	-1	1311
3	474	1096	-1	1097
3	475	1313	-1	1806
3	476	730	1	739
3	477	723	1	1335
3	478	750	-1	1201
3	479	838	-1	1196
3	480	819	1	855
3	481	548	-1	1479
3	482	458	1	1417
3	483	849	1	1121
3	484	1104	1	1632
3	485	422	1	804
3	486	1094	1	958
3	487	1308	1	1521
3	488	475	-1	1170
3	489	695	1	989
3	490	732	1	1460
3	491	324	-1	1256
3	492	1044	-1	1186
3	493	933	1	625
3	494	511	1	1130
3	495	621	1	745
3	496	1328	1	1373
3	497	388	1	1138
3	498	396	1	1427
3	499	705	1	790
3	500	894	-1	1209
3	501	1023	-1	1163
3	502	552	1	777
3	503	997	1	1113
3	504	631	-1	1004
3	505	1240	-1	938
3	506	577	1	761
3	507	361	1	917
3	508	791	1	920
3	509	176	1	872
3	510	1102	-1	1047
3	511	499	1	949
3	512	1076	1	902
3	513	1031	-1	917
3	514	559	1	727
3	515	537	-1	702
3	516	529	1	952
3	517	1162	-1	855
3	518	180	1	1274
3	519	783	1	922
3	520	1138	1	1311
3	521	814	1	750
3	522	846	1	922
3	523	1029	-1	949
3	524	376	1	1024
3	525	494	1	1103
3	526	1061	-1	987
3	527	126	-1	1373
3	528	349	-1	885
3	529	194	-1	1645
3	530	664	-1	857
3	531	528	1	1098
3	532	1146	1	814
3	533	818	-1	900
3	534	676	-1	1063
3	535	1359	1	1356
3	536	1093	1	1357
3	537	954	-1	1176
3	538	666	1	1231
3	539	1381	-1	1048
3	540	224	-1	888
3	541	1340	1	1225
3	542	85	1	1505
3	543	1025	1	869
3	544	703	-1	1260
3	545	143	1	892
3	546	1072	-1	1049
3	547	20	1	976
3	548	333	-1	1503
3	549	1032	1	952
3	550	408	1	1152
3	551	51	1	994
3	552	299	1	1419
3	553	1352	1	1093
3	554	699	1	987
3	555	1071	1	796
3	556	1378	1	942
3	557	1066	-1	1303
3	558	1056	-1	1298
3	559	749	-1	1026
3	560	622	-1	950
3	561	722	1	668
3	562	307	-1	937
3	563	1290	1	1085
3	564	715	1	1330
3	565	1208	-1	1192
3	566	551	-1	1192
3	567	379	-1	1979
3	568	847	1	1091
3	569	1339	1	1073
3	570	865	1	1020
3	571	1263	-1	1098
3	572	207	-1	1472
3	573	378	1	874
3	574	1194	1	1029
3	575	965	1	1664
3	576	779	1	719
3	577	806	1	1790
3	578	438	1	943
3	579	845	-1	1652
3	580	171	-1	1154
3	581	1375	1	1035
3	582	820	1	1561
3	583	1350	1	696
3	584	5	1	1012
3	585	959	1	953
3	586	365	1	1117
3	587	960	-1	1577
3	588	424	-1	1159
3	589	28	1	1167
3	590	332	1	1153
3	591	1380	1	1163
3	592	618	-1	1513
3	593	1391	-1	1012
3	594	447	1	1003
3	595	915	1	1277
3	596	857	1	1104
3	597	1279	-1	942
3	598	496	1	963
3	599	994	-1	919
3	600	1179	1	1197
3	601	976	1	1472
3	602	1116	1	808
3	603	343	-1	798
3	604	1060	1	676
3	605	481	-1	1153
3	606	1196	-1	1215
3	607	625	1	697
3	608	1143	-1	898
3	609	925	-1	1450
3	610	366	-1	860
3	611	512	1	786
3	612	47	-1	908
3	613	900	-1	856
3	614	1174	1	1050
3	615	400	1	1251
3	616	212	1	1177
3	617	4	1	1275
3	618	1238	1	1017
3	619	63	1	1063
3	620	1277	1	1004
3	621	1008	1	1041
3	622	686	1	916
3	623	966	1	1144
3	624	1228	-1	625
3	625	300	-1	850
3	626	973	1	821
3	627	927	1	1183
3	628	372	1	1492
3	629	1247	-1	1064
3	630	801	1	952
3	631	482	1	608
3	632	286	1	1144
3	633	828	-1	963
3	634	43	-1	1075
3	635	573	1	1302
3	636	345	1	1010
3	637	45	-1	953
3	638	1139	1	1101
3	639	317	1	1287
3	640	1128	1	1316
3	641	209	1	955
3	642	1334	1	1246
3	643	166	1	1430
3	644	862	-1	1417
3	645	946	-1	1052
3	646	281	1	2261
3	647	508	1	697
3	648	1055	-1	1120
3	649	129	-1	1529
3	650	741	-1	1152
3	651	627	-1	1072
3	652	561	1	1306
3	653	868	-1	1052
3	654	502	-1	1036
3	655	505	-1	947
3	656	863	-1	1103
3	657	1215	-1	1169
3	658	338	1	1269
3	659	1309	-1	1334
3	660	1243	-1	1305
3	661	81	-1	1108
3	662	974	1	978
3	663	903	-1	1269
3	664	99	1	730
3	665	808	-1	1357
3	666	1142	-1	1698
3	667	546	1	808
3	668	726	1	754
3	669	492	1	1093
3	670	1002	-1	1294
3	671	10	1	1119
3	672	563	-1	1060
3	673	786	1	1287
3	674	1176	-1	997
3	675	1063	-1	1288
3	676	583	1	849
3	677	654	-1	1036
3	678	830	1	867
3	679	421	1	790
3	680	1155	1	1063
3	681	1091	-1	1319
3	682	253	-1	1299
3	683	456	-1	1211
3	684	534	1	1383
3	685	310	1	994
3	686	881	1	1185
3	687	76	-1	1407
3	688	1222	1	899
3	689	78	-1	1194
3	690	91	1	968
3	691	645	1	1163
3	692	417	-1	1113
3	693	898	-1	1082
3	694	96	1	770
3	695	6	1	1221
3	696	533	-1	1202
3	697	1198	-1	996
3	698	228	1	1123
3	699	616	-1	1063
3	700	804	1	623
3	701	487	-1	1255
3	702	952	1	587
3	703	1371	-1	1024
3	704	757	-1	903
3	705	987	1	663
3	706	374	-1	1136
3	707	758	-1	945
3	708	588	1	729
3	709	607	1	1070
3	710	793	-1	888
3	711	448	1	1083
3	712	179	-1	915
3	713	697	1	760
3	714	572	-1	1126
3	715	260	-1	1106
3	716	1255	-1	1017
3	717	1199	1	641
3	718	596	-1	1073
3	719	190	-1	1005
3	720	701	1	735
3	721	431	1	1402
3	722	998	1	1117
3	723	582	-1	996
3	724	26	-1	1000
3	725	876	-1	952
3	726	132	1	1374
3	727	794	-1	1010
3	728	290	-1	1231
3	729	1148	-1	1126
3	730	574	-1	1668
3	731	119	-1	1323
3	732	908	1	1219
3	733	864	-1	1451
3	734	312	1	1109
3	735	1232	1	927
3	736	513	1	1417
3	737	661	-1	1034
3	738	1360	1	1348
3	739	285	-1	1135
3	740	816	-1	1371
3	741	967	1	1426
3	742	398	1	1036
3	743	344	1	1167
3	744	466	1	1770
3	745	805	1	1257
3	746	258	-1	1266
3	747	335	1	1219
3	748	856	1	949
3	749	571	1	1216
3	750	692	-1	1000
3	751	909	1	1297
3	752	1158	1	1268
3	753	107	-1	1126
3	754	37	1	729
3	755	1137	1	1083
3	756	73	-1	715
3	757	532	1	764
3	758	301	-1	1109
3	759	1251	-1	897
3	760	917	1	714
3	761	24	1	1003
3	762	133	-1	1086
3	763	565	1	835
3	764	72	-1	1006
3	765	488	-1	1126
3	766	1126	-1	898
3	767	232	-1	1057
3	768	870	-1	1209
3	769	611	1	650
3	770	308	1	837
3	771	1288	1	1021
3	772	910	-1	893
3	773	230	-1	1071
3	774	1285	1	1018
3	775	416	1	844
3	776	123	-1	1212
3	777	38	1	1731
3	778	780	-1	985
3	779	1022	1	1064
3	780	174	1	764
3	781	146	1	1020
3	782	1322	1	1036
3	783	1019	1	1049
3	784	1398	1	1621
3	785	543	-1	1066
3	786	204	-1	1113
3	787	152	1	1126
3	788	323	1	850
3	789	1185	1	1004
3	790	155	-1	1298
3	791	1393	-1	1166
3	792	1400	-1	1200
3	793	280	1	848
3	794	309	1	1206
3	795	1202	1	1253
3	796	516	-1	1141
3	797	1005	-1	1098
3	798	968	-1	851
3	799	256	-1	1255
3	800	945	1	1439
3	801	1257	-1	940
3	802	1127	1	632
3	803	1106	-1	649
3	804	1006	1	571
3	805	1301	-1	803
3	806	29	1	1034
3	807	777	1	971
3	808	538	1	938
3	809	339	1	1232
3	810	872	1	1056
3	811	665	1	1120
3	812	940	-1	1144
3	813	889	-1	987
3	814	1183	1	1141
3	815	1382	-1	903
3	816	713	-1	1169
3	817	507	-1	1006
3	818	1397	1	861
3	819	926	1	1397
3	820	311	1	962
3	821	549	-1	1013
3	822	685	1	783
3	823	670	1	1221
3	824	930	-1	1325
3	825	771	1	1049
3	826	325	1	1191
3	827	598	-1	1201
3	828	154	1	763
3	829	1123	1	1160
3	830	165	-1	962
3	831	134	-1	1186
3	832	744	1	1309
3	833	1134	1	797
3	834	935	1	1452
3	835	963	1	923
3	836	691	-1	1681
3	837	826	1	1216
3	838	875	1	1114
3	839	1379	1	1188
3	840	797	1	1231
3	841	268	1	1253
3	842	1226	1	1655
3	843	14	1	1069
3	844	387	1	1051
3	845	1209	1	926
3	846	1349	-1	1303
3	847	318	1	868
3	848	957	-1	909
3	849	1171	1	946
3	850	1109	-1	877
3	851	1101	1	1009
3	852	948	1	1196
3	853	342	-1	1174
3	854	725	-1	965
3	855	271	1	856
3	856	320	-1	945
3	857	983	1	622
3	858	443	-1	1394
3	859	550	-1	1317
3	860	35	-1	1480
3	861	501	1	1126
3	862	503	-1	1089
3	863	653	-1	1164
3	864	770	-1	1005
3	865	1111	-1	1343
3	866	259	-1	1182
3	867	56	-1	1176
3	868	2	1	733
3	869	214	1	1456
3	870	716	-1	884
3	871	178	-1	1291
3	872	50	-1	1317
3	873	1114	1	908
3	874	273	1	790
3	875	907	1	1300
3	876	799	-1	894
3	877	490	-1	1181
3	878	139	1	1210
3	879	1145	1	1041
3	880	1296	-1	1536
3	881	373	1	1299
3	882	690	-1	1095
3	883	570	1	738
3	884	633	1	1695
3	885	86	-1	919
3	886	1097	-1	1026
3	887	1344	-1	1084
3	888	564	1	1043
3	889	1049	-1	899
3	890	216	1	1287
3	891	535	-1	881
3	892	1034	-1	1116
3	893	754	-1	1236
3	894	158	1	907
3	895	1205	-1	1063
3	896	1135	1	1911
3	897	287	-1	1332
3	898	1320	-1	806
3	899	1065	1	752
3	900	1399	1	1111
3	901	854	-1	1057
3	902	1227	1	799
3	903	972	-1	1097
3	904	370	-1	960
3	905	283	1	976
3	906	82	1	849
3	907	1315	-1	849
3	908	1040	1	835
3	909	746	1	1115
3	910	882	-1	1307
3	911	455	-1	968
3	912	689	1	1000
3	913	1312	-1	936
3	914	276	1	839
3	915	277	1	926
3	916	1259	-1	1044
3	917	1016	-1	1109
3	918	478	1	996
3	919	1087	-1	1093
3	920	964	1	1051
3	921	980	1	1004
3	922	161	1	1000
3	923	377	1	1123
3	924	720	1	1048
3	925	764	-1	885
3	926	1009	1	1232
3	927	1366	1	698
3	928	1163	1	826
3	929	943	1	1050
3	930	687	-1	942
3	931	1343	1	1092
3	932	19	-1	933
3	933	89	1	952
3	934	562	1	1356
3	935	148	1	1074
3	936	304	1	1267
3	937	162	1	754
3	938	1384	-1	1314
3	939	1356	-1	855
3	940	790	1	732
3	941	104	1	1140
3	942	203	-1	681
3	943	79	1	808
3	944	1088	1	974
3	945	1316	-1	825
3	946	249	1	692
3	947	264	-1	1227
3	948	62	1	925
3	949	693	1	994
3	950	681	-1	1220
3	951	13	1	652
3	952	1074	1	1338
3	953	331	-1	1163
3	954	504	1	1072
3	955	1302	-1	802
3	956	357	1	831
3	957	1305	1	1536
3	958	955	1	658
3	959	1230	1	955
3	960	1141	-1	1033
3	961	815	1	1225
3	962	266	-1	1253
3	963	1027	1	1068
3	964	337	-1	1183
3	965	284	1	1400
3	966	950	1	1154
3	967	509	-1	1109
3	968	1075	1	857
3	969	1354	-1	1034
3	970	1368	1	960
3	971	1077	1	1123
3	972	168	1	1066
3	973	782	1	1321
3	974	871	-1	989
3	975	87	-1	1054
3	976	789	-1	1104
3	977	1089	-1	1474
3	978	648	-1	1114
3	979	61	1	1252
3	980	205	1	1127
3	981	891	1	1336
3	982	684	-1	1206
3	983	452	1	777
3	984	604	1	920
3	985	476	-1	1127
3	986	590	1	727
3	987	1348	1	1013
3	988	1282	1	1842
3	989	1363	1	1211
3	990	1310	1	1126
3	991	405	1	1257
3	992	640	-1	1106
3	993	1335	-1	1479
3	994	1258	1	949
3	995	1103	-1	770
3	996	351	1	993
3	997	1280	1	1059
3	998	599	1	1152
3	999	1082	-1	895
3	1000	46	-1	1036
3	1001	247	-1	920
3	1002	795	1	756
3	1003	635	1	1237
3	1004	1278	1	687
3	1005	1081	-1	1162
3	1006	441	-1	1234
3	1007	185	1	641
3	1008	1013	1	757
3	1009	369	-1	869
3	1010	1345	-1	1197
3	1011	587	1	986
3	1012	920	-1	842
3	1013	437	-1	1371
3	1014	1274	-1	1533
3	1015	1069	-1	752
3	1016	905	1	705
3	1017	886	-1	1320
3	1018	1370	-1	1309
3	1019	473	1	891
3	1020	172	-1	899
3	1021	65	-1	994
3	1022	923	1	1213
3	1023	18	-1	1352
3	1024	265	1	1244
3	1025	986	1	771
3	1026	105	1	1161
3	1027	853	-1	1308
3	1028	217	1	642
3	1029	769	1	1202
3	1030	624	-1	1258
3	1031	227	-1	1214
3	1032	1338	-1	1110
3	1033	615	1	1480
3	1034	982	-1	1076
3	1035	1237	-1	986
3	1036	885	-1	1609
3	1037	469	1	817
3	1038	64	1	723
3	1039	457	1	1061
3	1040	1090	1	1238
3	1041	69	1	1268
3	1042	842	1	1289
3	1043	839	1	1072
3	1044	1221	1	1213
3	1045	555	1	1199
3	1046	1000	1	1181
3	1047	246	1	1308
3	1048	1159	1	1142
3	1049	1068	1	730
3	1050	1347	1	1052
3	1051	756	1	1198
3	1052	222	-1	2431
3	1053	495	-1	1534
3	1054	191	1	719
3	1055	947	1	1024
3	1056	267	1	693
3	1057	641	1	1266
3	1058	776	1	1062
3	1059	1374	1	752
3	1060	391	1	1000
3	1061	219	1	1236
3	1062	425	1	669
3	1063	877	-1	1327
3	1064	1150	-1	969
3	1065	1244	1	1000
3	1066	1129	1	1138
3	1067	1167	1	885
3	1068	1115	-1	1402
3	1069	890	-1	1106
3	1070	428	1	658
3	1071	737	1	1398
3	1072	8	-1	995
3	1073	1300	1	608
3	1074	568	1	674
3	1075	1140	-1	939
3	1076	813	-1	823
3	1077	27	-1	989
3	1078	464	-1	953
3	1079	362	1	1355
3	1080	1084	-1	1196
3	1081	844	1	606
3	1082	1149	-1	934
3	1083	704	-1	935
3	1084	680	1	833
3	1085	30	-1	858
3	1086	992	1	1074
3	1087	1052	-1	1177
3	1088	467	-1	1091
3	1089	7	1	1186
3	1090	996	-1	956
3	1091	643	1	810
3	1092	668	-1	972
3	1093	348	-1	762
3	1094	649	-1	1331
3	1095	474	1	1069
3	1096	157	1	1181
3	1097	800	-1	959
3	1098	420	1	747
3	1099	848	1	968
3	1100	765	-1	1463
3	1101	389	-1	1059
3	1102	1306	1	820
3	1103	652	-1	738
3	1104	597	1	1656
3	1105	60	1	914
3	1106	708	1	1043
3	1107	679	1	1008
3	1108	1085	-1	1645
3	1109	1003	1	1188
3	1110	160	1	916
3	1111	25	-1	1329
3	1112	855	1	1016
3	1113	1030	1	1034
3	1114	759	-1	999
3	1115	751	1	1111
3	1116	901	-1	1162
3	1117	40	-1	917
3	1118	835	1	838
3	1119	1026	-1	771
3	1120	291	-1	1141
3	1121	822	-1	900
3	1122	44	-1	1055
3	1123	843	-1	1148
3	1124	1037	-1	1381
3	1125	902	1	1183
3	1126	707	1	1061
3	1127	531	-1	985
3	1128	117	1	624
3	1129	275	-1	960
3	1130	1327	-1	794
3	1131	1186	1	1038
3	1132	1035	-1	872
3	1133	315	1	554
3	1134	913	1	787
3	1135	896	1	970
3	1136	892	-1	907
3	1137	327	1	711
3	1138	112	-1	1164
3	1139	747	1	981
3	1140	145	1	641
3	1141	221	-1	1014
3	1142	1180	-1	1608
3	1143	662	-1	1300
3	1144	74	1	694
3	1145	601	1	1091
3	1146	1048	1	1102
3	1147	944	1	798
3	1148	850	-1	1157
3	1149	480	-1	1217
3	1150	1292	1	638
3	1151	418	1	1008
3	1152	1298	1	1171
3	1153	435	1	715
3	1154	210	1	982
3	1155	1220	-1	858
3	1156	163	1	742
3	1157	1229	1	1094
3	1158	1187	-1	1114
3	1159	101	-1	1277
3	1160	1270	-1	1361
3	1161	442	1	643
3	1162	106	1	1090
3	1163	796	1	1190
3	1164	1059	-1	1142
3	1165	874	-1	846
3	1166	393	1	711
3	1167	173	1	875
3	1168	92	1	1326
3	1169	434	1	1049
3	1170	1020	-1	1411
3	1171	623	-1	1050
3	1172	1119	-1	1236
3	1173	500	-1	1610
3	1174	956	1	726
3	1175	589	1	952
3	1176	1057	-1	918
3	1177	999	1	1087
3	1178	663	-1	914
3	1179	912	-1	1273
3	1180	1286	1	1019
3	1181	196	-1	923
3	1182	677	-1	1000
3	1183	833	-1	1190
3	1184	1131	-1	1132
3	1185	523	1	1180
3	1186	1245	1	1226
3	1187	774	1	1234
3	1188	395	1	1362
3	1189	784	-1	1487
3	1190	383	1	1264
3	1191	439	-1	995
3	1192	609	1	1084
3	1193	1271	-1	1023
3	1194	237	1	1047
3	1195	731	-1	1050
3	1196	866	-1	1221
3	1197	1170	-1	1578
3	1198	1373	-1	1004
3	1199	130	-1	1190
3	1200	164	-1	1763
3	1201	220	1	1020
3	1202	603	-1	1364
3	1203	743	1	1580
3	1204	970	1	851
3	1205	483	-1	816
3	1206	1260	1	724
3	1207	673	1	1186
3	1208	1225	-1	1012
3	1209	1001	1	983
3	1210	1046	1	814
3	1211	187	1	800
3	1212	432	1	1200
3	1213	250	1	1041
3	1214	137	-1	1237
3	1215	141	1	1039
3	1216	809	1	862
3	1217	1177	1	1257
3	1218	752	1	970
3	1219	1365	-1	1202
3	1220	184	1	634
3	1221	1136	1	916
3	1222	359	-1	1383
3	1223	326	1	668
3	1224	167	1	1114
3	1225	575	1	1205
3	1226	858	1	725
3	1227	1297	1	1166
3	1228	120	-1	916
3	1229	1231	1	1066
3	1230	1236	-1	847
3	1231	812	1	714
3	1232	1098	1	1276
3	1233	68	-1	1366
3	1234	698	1	562
3	1235	929	1	768
3	1236	108	1	831
3	1237	128	-1	1207
3	1238	981	1	640
3	1239	239	1	1085
3	1240	269	-1	928
3	1241	386	1	653
3	1242	401	1	1402
3	1243	904	-1	912
3	1244	33	-1	1223
3	1245	142	-1	941
3	1246	1117	-1	1155
3	1247	700	-1	1008
3	1248	1092	1	1212
3	1249	193	-1	978
3	1250	1246	-1	1169
3	1251	1218	-1	1182
3	1252	710	1	696
3	1253	121	1	935
3	1254	557	-1	933
3	1255	296	1	933
3	1256	463	1	1152
3	1257	916	1	1180
3	1258	938	1	997
3	1259	233	1	1142
3	1260	1197	-1	1370
3	1261	192	-1	1144
3	1262	712	1	884
3	1263	1100	-1	1319
3	1264	827	-1	1007
3	1265	390	1	1060
3	1266	1211	1	1024
3	1267	1249	1	1737
3	1268	834	1	1091
3	1269	346	1	973
3	1270	16	1	982
3	1271	278	1	811
3	1272	445	-1	989
3	1273	1207	1	1248
3	1274	90	-1	1393
3	1275	1079	1	1212
3	1276	241	1	762
3	1277	657	1	1064
3	1278	1038	-1	1055
3	1279	880	1	889
3	1280	380	1	1350
3	1281	656	-1	1371
3	1282	515	-1	1432
3	1283	659	-1	992
3	1284	773	1	1148
3	1285	721	-1	1220
3	1286	116	-1	1209
3	1287	936	-1	1316
3	1288	1281	-1	1192
3	1289	612	-1	1091
3	1290	1329	-1	895
3	1291	181	1	1079
3	1292	294	1	702
3	1293	576	1	997
3	1294	409	1	1316
3	1295	989	1	797
3	1296	727	1	1458
3	1297	414	1	1122
3	1298	579	1	1099
3	1299	1108	-1	912
3	1300	1039	1	1146
3	1301	1018	-1	1091
3	1302	1195	-1	725
3	1303	103	1	1343
3	1304	1287	-1	803
3	1305	924	-1	1220
3	1306	413	1	1015
3	1307	412	1	798
3	1308	226	-1	1829
3	1309	118	1	1130
3	1310	536	1	761
3	1311	728	-1	1309
3	1312	610	-1	945
3	1313	569	-1	1479
3	1314	251	1	982
3	1315	350	1	1067
3	1316	931	1	1363
3	1317	58	-1	1020
3	1318	958	-1	1001
3	1319	1332	1	639
3	1320	735	-1	886
3	1321	189	-1	804
3	1322	472	-1	1021
3	1323	182	-1	938
3	1324	223	-1	1212
3	1325	675	-1	1018
3	1326	542	1	686
3	1327	59	-1	1121
3	1328	1262	-1	869
3	1329	1058	1	802
3	1330	433	1	962
3	1331	766	1	965
3	1332	1133	1	838
3	1333	1372	1	1100
3	1334	52	1	990
3	1335	792	-1	952
3	1336	484	1	1053
3	1337	1122	-1	869
3	1338	688	1	1023
3	1339	760	1	1203
3	1340	539	1	1080
3	1341	235	1	1079
3	1342	807	1	1442
3	1343	358	1	1186
3	1344	450	1	1142
3	1345	97	1	1619
3	1346	897	1	1001
3	1347	887	-1	1373
3	1348	1291	1	665
3	1349	462	1	1217
3	1350	626	-1	1046
3	1351	57	1	842
3	1352	921	1	1025
3	1353	1047	-1	1357
3	1354	778	1	696
3	1355	1083	1	1436
3	1356	1367	1	681
3	1357	1051	1	1117
3	1358	803	1	1104
3	1359	788	1	1195
3	1360	581	1	1232
3	1361	215	-1	1344
3	1362	186	1	1203
3	1363	243	1	1047
3	1364	1314	1	1165
3	1365	1166	1	848
3	1366	1200	1	793
3	1367	347	1	1230
3	1368	638	-1	1016
3	1369	1273	1	703
3	1370	1324	1	905
3	1371	619	1	806
3	1372	914	1	1255
3	1373	406	1	1123
3	1374	1284	1	752
3	1375	295	1	835
3	1376	175	1	1304
3	1377	468	1	1129
3	1378	977	1	819
3	1379	605	-1	1360
3	1380	169	-1	1033
3	1381	1253	1	1082
3	1382	719	-1	1337
3	1383	208	1	726
3	1384	518	-1	1029
3	1385	585	-1	1267
3	1386	1250	1	924
3	1387	922	-1	1066
3	1388	817	-1	1058
3	1389	1191	-1	1118
3	1390	292	-1	1178
3	1391	888	1	991
3	1392	824	-1	1199
3	1393	1337	1	672
3	1394	263	1	995
3	1395	1351	1	1229
3	1396	305	1	1021
3	1397	606	1	1128
3	1398	650	1	1513
3	1399	718	-1	884
3	1400	102	1	1116
4	1	61	1	11363
4	2	831	1	2532
4	3	612	1	5267
4	4	463	-1	8548
4	5	401	1	8671
4	6	262	-1	6521
4	7	185	-1	2770
4	8	131	-1	7622
4	9	1186	-1	17753
4	10	13	-1	2473
4	11	626	-1	11087
4	12	719	1	11716
4	13	67	1	4304
4	14	1379	-1	3960
4	15	38	-1	5609
4	16	235	-1	5722
4	17	824	1	7377
4	18	1400	1	5713
4	19	948	1	2352
4	20	1353	1	6881
4	21	939	1	4581
4	22	163	1	1625
4	23	158	1	5348
4	24	242	1	2295
4	25	1378	1	2338
4	26	1103	-1	1861
4	27	508	1	1542
4	28	870	1	3455
4	29	204	1	1386
4	30	1265	1	1432
4	31	534	1	3655
4	32	908	1	2922
4	33	81	1	13762
4	34	269	1	2427
4	35	1134	-1	8804
4	36	806	1	1849
4	37	3	1	3005
4	38	1131	1	2248
4	39	1396	-1	6764
4	40	1078	1	1789
4	41	134	1	2128
4	42	616	-1	8991
4	43	1182	1	4242
4	44	951	1	1412
4	45	500	1	7551
4	46	663	1	1889
4	47	791	1	1585
4	48	1143	1	1969
4	49	712	1	5268
4	50	613	1	3262
4	51	826	1	2180
4	52	871	-1	1244
4	53	969	-1	2754
4	54	932	1	3581
4	55	797	1	3785
4	56	1326	1	2925
4	57	181	-1	6363
4	58	126	-1	3573
4	59	501	1	4878
4	60	532	-1	3263
4	61	462	1	6299
4	62	967	1	6680
4	63	1258	-1	5315
4	64	1113	1	3660
4	65	1352	-1	1752
4	66	1252	1	2379
4	67	115	-1	1437
4	68	226	-1	4418
4	69	702	1	6353
4	70	689	-1	2979
4	71	1246	-1	8318
4	72	748	1	2887
4	73	779	1	3557
4	74	47	1	2307
4	75	244	1	2315
4	76	1348	1	4168
4	77	1038	1	6762
4	78	1277	1	3008
4	79	265	1	12031
4	80	16	1	3059
4	81	45	1	2401
4	82	792	-1	7677
4	83	1190	-1	16815
4	84	560	-1	2129
4	85	682	1	2428
4	86	203	1	3000
4	87	225	-1	6915
4	88	461	1	1602
4	89	598	1	1637
4	90	950	1	6983
4	91	794	1	7910
4	92	155	1	1752
4	93	584	1	1553
4	94	146	1	4401
4	95	246	1	3394
4	96	822	1	1977
4	97	1261	1	3795
4	98	574	-1	10900
4	99	1388	1	5586
4	100	724	1	2845
4	101	883	1	11118
4	102	775	1	4208
4	103	256	1	1784
4	104	1148	1	1956
4	105	1386	1	4371
4	106	114	-1	2003
4	107	178	1	2293
4	108	1271	1	2639
4	109	121	1	4707
4	110	221	-1	2124
4	111	82	1	3225
4	112	1027	1	6096
4	113	1096	1	1438
4	114	1376	1	4846
4	115	361	1	1335
4	116	482	1	1618
4	117	923	1	2355
4	118	140	-1	2481
4	119	515	1	1585
4	120	519	1	3373
4	121	800	1	1987
4	122	837	-1	4834
4	123	771	1	4178
4	124	457	1	1721
4	125	1088	1	2057
4	126	1025	1	4450
4	127	816	1	1379
4	128	1206	1	1873
4	129	1387	-1	1295
4	130	695	1	1341
4	131	1268	1	1995
4	132	716	1	8243
4	133	850	1	3247
4	134	325	1	3276
4	135	553	1	1917
4	136	379	1	2699
4	137	1285	1	1297
4	138	1045	1	5222
4	139	554	-1	2786
4	140	738	-1	1674
4	141	739	1	3562
4	142	364	-1	1760
4	143	210	1	3241
4	144	550	1	2403
4	145	788	-1	2627
4	146	52	-1	1933
4	147	946	1	2794
4	148	42	-1	3554
4	149	922	1	2836
4	150	988	1	7674
4	151	894	1	3492
4	152	632	1	8319
4	153	29	1	1956
4	154	337	-1	4190
4	155	1218	1	4360
4	156	1012	1	2445
4	157	868	1	1415
4	158	424	1	1328
4	159	1147	1	1749
4	160	1276	1	1396
4	161	1118	1	2941
4	162	931	1	1711
4	163	643	1	2491
4	164	990	-1	3498
4	165	760	1	12500
4	166	769	1	1864
4	167	96	1	2803
4	168	85	1	5391
4	169	62	1	2406
4	170	1332	1	2069
4	171	409	-1	1629
4	172	978	1	1904
4	173	1284	-1	3023
4	174	1138	1	1232
4	175	49	1	1344
4	176	243	1	3741
4	177	541	1	1132
4	178	383	1	1144
4	179	892	-1	1857
4	180	1002	-1	6095
4	181	356	1	9330
4	182	1120	1	2282
4	183	354	1	2405
4	184	1293	1	3690
4	185	723	1	3987
4	186	403	-1	3381
4	187	1295	1	2694
4	188	220	-1	1064
4	189	634	-1	1915
4	190	222	-1	1913
4	191	469	-1	1263
4	192	510	-1	4035
4	193	544	-1	1405
4	194	362	-1	2699
4	195	691	1	7593
4	196	1214	-1	1416
4	197	1185	1	2482
4	198	333	1	4152
4	199	994	1	1824
4	200	1334	1	3783
4	201	193	1	4526
4	202	904	1	2558
4	203	617	-1	3655
4	204	985	1	2833
4	205	867	1	1176
4	206	910	1	1627
4	207	423	1	1951
4	208	74	1	1814
4	209	1373	1	1642
4	210	820	1	2525
4	211	384	1	2378
4	212	845	1	1100
4	213	728	1	2978
4	214	1200	1	1847
4	215	1041	1	1832
4	216	856	1	1286
4	217	789	-1	2641
4	218	106	1	9561
4	219	815	1	1939
4	220	84	1	1222
4	221	439	1	2571
4	222	319	1	5581
4	223	448	-1	1718
4	224	351	1	3579
4	225	111	1	2819
4	226	818	1	2386
4	227	1187	1	3284
4	228	646	1	4154
4	229	499	-1	1683
4	230	376	-1	2498
4	231	681	-1	2180
4	232	564	-1	1784
4	233	317	-1	1465
4	234	705	1	5354
4	235	674	1	11337
4	236	250	1	1704
4	237	184	1	4008
4	238	1042	1	1244
4	239	581	1	3758
4	240	979	-1	1352
4	241	1072	-1	2160
4	242	1225	-1	3135
4	243	1374	1	4694
4	244	697	1	1869
4	245	23	1	1505
4	246	1351	1	1827
4	247	562	1	2493
4	248	489	1	1862
4	249	1229	1	2102
4	250	1217	1	1859
4	251	1196	1	2864
4	252	1130	1	1735
4	253	505	1	1686
4	254	718	-1	3588
4	255	1000	1	3168
4	256	1264	1	6348
4	257	965	1	1015
4	258	1389	1	1676
4	259	1067	1	943
4	260	416	1	1212
4	261	1086	1	1469
4	262	450	1	2267
4	263	2	-1	1800
4	264	998	1	5859
4	265	1140	1	3482
4	266	283	1	2837
4	267	1294	1	1521
4	268	960	-1	3907
4	269	494	1	1065
4	270	1232	1	3108
4	271	834	1	2216
4	272	490	1	3519
4	273	397	1	5179
4	274	172	1	2462
4	275	935	-1	3579
4	276	888	-1	1339
4	277	1366	-1	1642
4	278	1017	1	2485
4	279	531	-1	5623
4	280	406	1	3042
4	281	1058	1	2065
4	282	1179	1	6678
4	283	1237	1	972
4	284	318	1	2259
4	285	571	1	1836
4	286	491	1	1448
4	287	467	1	3826
4	288	1004	1	1760
4	289	734	1	1794
4	290	968	-1	2874
4	291	604	-1	2528
4	292	916	1	1663
4	293	261	1	4922
4	294	759	1	2020
4	295	314	1	5804
4	296	1189	1	1476
4	297	46	1	3228
4	298	239	1	1255
4	299	1368	1	1367
4	300	743	1	1796
4	301	276	1	3765
4	302	520	1	1584
4	303	102	1	1387
4	304	813	1	1284
4	305	900	1	1491
4	306	655	1	1197
4	307	1036	1	1211
4	308	1006	1	1269
4	309	1043	1	1236
4	310	1257	1	1197
4	311	238	1	1109
4	312	611	1	1688
4	313	782	1	2249
4	314	241	-1	1710
4	315	605	-1	1883
4	316	1288	-1	1799
4	317	228	1	6753
4	318	1083	1	3540
4	319	959	1	3162
4	320	399	-1	1670
4	321	1273	1	7973
4	322	938	1	1575
4	323	175	1	1618
4	324	1092	1	1407
4	325	635	1	2790
4	326	1075	1	2094
4	327	116	1	3954
4	328	27	-1	1286
4	329	686	-1	1769
4	330	1097	1	3031
4	331	1060	1	1429
4	332	780	1	2641
4	333	1363	1	4563
4	334	733	1	1123
4	335	50	-1	3660
4	336	576	1	2539
4	337	363	-1	2555
4	338	108	1	2520
4	339	727	1	3795
4	340	995	1	2384
4	341	943	1	7081
4	342	1121	-1	3132
4	343	731	1	1887
4	344	925	1	3003
4	345	836	1	5756
4	346	1305	1	3912
4	347	537	1	1878
4	348	113	-1	3948
4	349	162	-1	1578
4	350	670	1	1179
4	351	24	1	1635
4	352	33	1	2416
4	353	1292	-1	2474
4	354	232	1	5258
4	355	405	1	1957
4	356	69	1	3873
4	357	1161	1	1454
4	358	89	-1	1833
4	359	1055	1	3437
4	360	1391	-1	2361
4	361	1169	1	3560
4	362	1181	1	3042
4	363	535	1	1560
4	364	391	1	241
4	365	586	1	3960
4	366	893	1	1423
4	367	891	1	1756
4	368	109	-1	2541
4	369	83	1	5794
4	370	1260	1	1095
4	371	1338	-1	1406
4	372	7	-1	1303
4	373	801	1	1650
4	374	683	-1	1120
4	375	600	1	2052
4	376	921	-1	1192
4	377	647	1	2356
4	378	905	1	1862
4	379	690	-1	2022
4	380	1328	1	1600
4	381	53	1	1988
4	382	665	1	1258
4	383	1272	1	1945
4	384	929	-1	2892
4	385	823	1	3480
4	386	839	-1	1058
4	387	1263	1	1074
4	388	1208	1	1626
4	389	607	1	1555
4	390	398	-1	2063
4	391	260	-1	2029
4	392	1381	-1	3529
4	393	1099	1	5462
4	394	37	1	1132
4	395	1234	1	1761
4	396	1132	1	1609
4	397	899	1	1173
4	398	137	1	1758
4	399	493	1	1835
4	400	810	1	1323
4	401	944	1	3483
4	402	353	1	3560
4	403	1314	1	3066
4	404	1333	1	1140
4	405	1093	1	4175
4	406	280	1	1823
4	407	546	1	1507
4	408	1236	1	1643
4	409	64	-1	3738
4	410	97	1	2099
4	411	787	-1	2394
4	412	1013	1	13866
4	413	367	1	1626
4	414	827	1	2283
4	415	927	1	1985
4	416	480	-1	2764
4	417	864	1	2375
4	418	292	1	2282
4	419	781	1	4370
4	420	452	1	1811
4	421	972	1	1586
4	422	1098	1	1456
4	423	272	1	1450
4	424	22	1	1957
4	425	92	1	2057
4	426	1241	-1	2196
4	427	872	-1	8947
4	428	545	-1	3585
4	429	1216	1	1983
4	430	761	1	2714
4	431	310	1	2014
4	432	230	1	1360
4	433	1367	1	2462
4	434	533	1	1293
4	435	1117	1	1318
4	436	196	1	1315
4	437	65	1	2025
4	438	620	1	5812
4	439	164	1	1824
4	440	903	1	2037
4	441	552	1	1813
4	442	777	1	3380
4	443	117	1	1728
4	444	274	1	2896
4	445	125	-1	5905
4	446	1014	-1	5328
4	447	25	1	4064
4	448	1176	1	3792
4	449	127	1	3146
4	450	752	-1	1168
4	451	851	1	2450
4	452	594	1	1167
4	453	1320	-1	1835
4	454	975	1	1647
4	455	812	-1	1605
4	456	1311	1	3089
4	457	429	1	8111
4	458	588	-1	1616
4	459	444	1	2376
4	460	180	1	1342
4	461	1397	-1	2031
4	462	572	1	3447
4	463	257	1	1424
4	464	308	1	1520
4	465	786	1	1808
4	466	128	1	1936
4	467	377	-1	2399
4	468	214	-1	2513
4	469	940	1	1740
4	470	729	1	3162
4	471	751	-1	1484
4	472	973	1	2651
4	473	573	1	1742
4	474	233	1	1729
4	475	711	1	2424
4	476	327	1	1702
4	477	6	1	2339
4	478	963	1	1323
4	479	282	-1	2432
4	480	488	1	2655
4	481	873	-1	1193
4	482	153	-1	3543
4	483	909	1	2980
4	484	1247	1	3320
4	485	1029	-1	5552
4	486	199	1	4919
4	487	767	1	4038
4	488	28	1	1677
4	489	1336	1	1340
4	490	339	1	1971
4	491	619	1	1633
4	492	996	1	1537
4	493	701	1	2389
4	494	561	1	1749
4	495	445	-1	1775
4	496	79	1	3342
4	497	454	-1	3673
4	498	1188	1	2837
4	499	1238	-1	1584
4	500	933	1	3615
4	501	615	1	3909
4	502	110	1	3585
4	503	331	1	3994
4	504	1122	1	2880
4	505	1383	1	1720
4	506	1095	1	1661
4	507	983	-1	1536
4	508	913	1	2413
4	509	551	-1	1373
4	510	993	1	1471
4	511	1054	1	3838
4	512	556	1	1484
4	513	1248	1	1471
4	514	1392	-1	3054
4	515	954	1	1530
4	516	838	-1	1067
4	517	536	1	1302
4	518	744	-1	1955
4	519	833	-1	2472
4	520	495	1	1801
4	521	1172	1	2335
4	522	294	1	1247
4	523	76	-1	3278
4	524	1129	1	5795
4	525	989	1	1598
4	526	1082	1	1775
4	527	1301	-1	1740
4	528	886	-1	2275
4	529	430	1	2815
4	530	476	-1	1201
4	531	1167	1	904
4	532	340	-1	2117
4	533	248	1	3053
4	534	212	1	5851
4	535	417	-1	2319
4	536	142	1	3576
4	537	1325	-1	1197
4	538	344	-1	1381
4	539	437	-1	5344
4	540	976	1	2502
4	541	1211	1	1753
4	542	966	-1	1996
4	543	700	-1	3038
4	544	58	-1	3540
4	545	1259	1	2807
4	546	1345	-1	3534
4	547	1240	-1	855
4	548	100	1	2743
4	549	1001	1	1847
4	550	1115	1	1689
4	551	1106	-1	1906
4	552	853	-1	4352
4	553	710	1	1613
4	554	1203	1	1548
4	555	1303	1	1528
4	556	30	1	1354
4	557	497	1	3447
4	558	1318	1	1431
4	559	656	1	1409
4	560	578	1	1330
4	561	485	1	1584
4	562	640	1	1979
4	563	1127	1	1143
4	564	213	1	1506
4	565	523	-1	4645
4	566	249	1	3139
4	567	591	1	4421
4	568	1282	1	3522
4	569	73	-1	2744
4	570	195	1	5996
4	571	1365	1	1118
4	572	334	1	1120
4	573	408	1	1785
4	574	255	-1	1375
4	575	662	1	1991
4	576	688	1	4171
4	577	1089	1	1265
4	578	297	1	3439
4	579	795	1	1480
4	580	304	1	1107
4	581	303	-1	2469
4	582	949	1	2044
4	583	441	1	3703
4	584	721	1	4576
4	585	636	1	2395
4	586	522	1	1373
4	587	849	1	1417
4	588	901	1	1427
4	589	1266	1	1828
4	590	492	1	4111
4	591	159	-1	6129
4	592	737	1	1311
4	593	764	-1	1549
4	594	177	-1	1802
4	595	1135	1	2794
4	596	326	1	5903
4	597	992	-1	1777
4	598	1341	-1	3530
4	599	592	1	1569
4	600	90	1	6692
4	601	1010	1	3112
4	602	987	-1	1480
4	603	569	1	1013
4	604	1195	1	1615
4	605	1154	1	1377
4	606	1304	1	2771
4	607	567	1	2148
4	608	1008	1	2214
4	609	828	1	4026
4	610	415	1	3661
4	611	1030	1	1102
4	612	10	1	1367
4	613	1309	1	1186
4	614	502	1	4480
4	615	694	-1	1559
4	616	313	-1	1700
4	617	330	1	1631
4	618	566	-1	1677
4	619	754	-1	1888
4	620	518	1	7145
4	621	1250	-1	5450
4	622	346	1	2797
4	623	123	1	1666
4	624	320	1	2231
4	625	413	1	1146
4	626	473	1	804
4	627	328	1	1686
4	628	997	1	922
4	629	625	1	1025
4	630	1091	-1	1525
4	631	360	1	3436
4	632	664	-1	1375
4	633	438	1	2753
4	634	412	-1	1453
4	635	279	1	2460
4	636	143	1	1145
4	637	11	1	2202
4	638	895	1	4984
4	639	1275	1	1755
4	640	906	1	2231
4	641	1125	1	1826
4	642	1350	1	1447
4	643	875	1	1327
4	644	118	1	2327
4	645	1021	1	2146
4	646	1297	1	1257
4	647	896	1	1285
4	648	104	-1	1511
4	649	1371	1	3516
4	650	585	1	2388
4	651	1049	1	1495
4	652	917	1	2044
4	653	305	1	1636
4	654	765	1	7703
4	655	657	1	1577
4	656	1023	-1	1819
4	657	1062	1	1326
4	658	419	-1	1466
4	659	644	1	2279
4	660	1123	-1	1960
4	661	35	-1	1625
4	662	819	-1	2737
4	663	618	-1	1453
4	664	961	-1	6053
4	665	267	-1	2270
4	666	1137	1	4467
4	667	1235	1	1885
4	668	208	1	1028
4	669	224	1	1222
4	670	902	1	1144
4	671	503	-1	1737
4	672	1204	1	5537
4	673	583	1	2854
4	674	732	1	1822
4	675	455	1	1682
4	676	1372	1	1512
4	677	1280	1	2612
4	678	915	1	1507
4	679	538	-1	1268
4	680	1377	1	2172
4	681	947	1	3227
4	682	511	1	1595
4	683	1168	-1	1955
4	684	579	-1	1824
4	685	36	1	6022
4	686	1359	1	1635
4	687	386	1	1758
4	688	87	-1	1311
4	689	484	1	1873
4	690	286	1	3429
4	691	1223	1	1500
4	692	338	-1	10026
4	693	692	1	1748
4	694	889	-1	1238
4	695	770	1	3826
4	696	521	1	1551
4	697	147	1	4398
4	698	496	1	4449
4	699	1202	-1	2937
4	700	359	-1	1763
4	701	205	1	5047
4	702	1394	-1	1777
4	703	874	-1	1762
4	704	714	-1	2509
4	705	982	1	4789
4	706	720	1	3592
4	707	741	1	1272
4	708	1107	1	2104
4	709	1230	1	2846
4	710	703	1	1440
4	711	774	1	1409
4	712	94	-1	5851
4	713	1395	1	1885
4	714	1141	-1	2347
4	715	860	-1	1611
4	716	778	1	2987
4	717	460	-1	1331
4	718	414	-1	1506
4	719	814	-1	3543
4	720	675	1	6852
4	721	472	1	6725
4	722	341	1	1096
4	723	869	1	1560
4	724	375	1	1340
4	725	841	1	1464
4	726	1158	1	2852
4	727	343	1	1136
4	728	1192	1	1120
4	729	526	1	951
4	730	755	-1	1352
4	731	188	-1	1224
4	732	60	1	1504
4	733	1022	-1	2543
4	734	1283	-1	1520
4	735	1152	1	1631
4	736	498	-1	2184
4	737	798	-1	1360
4	738	986	1	5439
4	739	882	1	1191
4	740	427	-1	1872
4	741	722	1	1471
4	742	829	-1	2920
4	743	628	-1	3439
4	744	599	1	1152
4	745	201	-1	5951
4	746	676	1	2840
4	747	434	1	1135
4	748	830	-1	1368
4	749	217	1	3359
4	750	1291	1	967
4	751	396	-1	2072
4	752	368	1	2016
4	753	66	-1	4246
4	754	101	-1	3048
4	755	1070	-1	1424
4	756	357	1	1191
4	757	453	1	1968
4	758	59	1	3951
4	759	290	-1	2088
4	760	321	-1	4806
4	761	71	1	3744
4	762	977	-1	1968
4	763	1077	1	3278
4	764	745	-1	1089
4	765	1180	-1	3582
4	766	12	-1	2144
4	767	631	-1	2450
4	768	606	1	1867
4	769	1136	-1	2050
4	770	287	1	2539
4	771	1053	1	2720
4	772	558	-1	1034
4	773	1157	1	1170
4	774	565	1	1972
4	775	1335	1	1604
4	776	284	1	1492
4	777	717	1	1286
4	778	258	-1	3152
4	779	1146	1	1485
4	780	911	-1	2301
4	781	216	-1	1629
4	782	937	-1	1682
4	783	704	-1	3623
4	784	1051	-1	2341
4	785	1160	1	2499
4	786	380	1	3150
4	787	1057	1	1240
4	788	1145	1	1822
4	789	698	-1	2851
4	790	229	-1	1697
4	791	400	1	3022
4	792	1262	1	1471
4	793	843	1	4329
4	794	757	-1	3592
4	795	1011	1	2346
4	796	762	1	1881
4	797	39	1	2265
4	798	1015	1	1834
4	799	189	1	3246
4	800	580	-1	2208
4	801	263	1	3052
4	802	446	1	1461
4	803	481	-1	1142
4	804	186	-1	1107
4	805	603	1	1212
4	806	200	1	2280
4	807	773	-1	1238
4	808	1159	-1	1075
4	809	1398	1	1206
4	810	1215	1	1900
4	811	821	1	1595
4	812	651	1	2844
4	813	1342	-1	1950
4	814	1	1	2053
4	815	1231	1	1300
4	816	245	1	1063
4	817	1183	1	1524
4	818	555	-1	1091
4	819	1073	1	1868
4	820	557	1	3192
4	821	742	-1	1650
4	822	479	1	1697
4	823	252	1	2407
4	824	1005	1	2516
4	825	223	1	1450
4	826	443	1	1504
4	827	275	-1	1797
4	828	1003	1	3301
4	829	1163	-1	3804
4	830	1354	-1	1781
4	831	999	1	1388
4	832	602	-1	1684
4	833	1071	1	1118
4	834	638	-1	1379
4	835	1119	1	1865
4	836	197	1	1083
4	837	1040	1	2104
4	838	48	1	1858
4	839	750	-1	2729
4	840	80	1	1610
4	841	301	-1	1867
4	842	56	1	2931
4	843	570	1	3614
4	844	211	-1	2500
4	845	190	1	1082
4	846	687	-1	1946
4	847	179	-1	1293
4	848	8	-1	1753
4	849	373	1	1746
4	850	884	1	4471
4	851	1249	1	1918
4	852	844	1	1168
4	853	530	-1	1725
4	854	673	1	6025
4	855	285	-1	1176
4	856	1084	1	1336
4	857	1221	1	1363
4	858	1064	-1	1109
4	859	273	1	1290
4	860	715	1	1415
4	861	706	1	1400
4	862	133	-1	1927
4	863	1201	1	2476
4	864	1165	1	3082
4	865	266	1	1254
4	866	32	1	1567
4	867	1375	1	4060
4	868	1047	1	5891
4	869	1079	1	2437
4	870	707	1	1837
4	871	945	-1	3152
4	872	394	-1	1273
4	873	1361	1	2830
4	874	1009	1	1622
4	875	709	-1	1517
4	876	1111	1	1115
4	877	34	1	2256
4	878	1306	-1	3505
4	879	151	-1	1252
4	880	1390	1	2573
4	881	847	1	1904
4	882	1174	1	2199
4	883	595	1	2851
4	884	736	1	1375
4	885	336	1	2242
4	886	1340	1	1058
4	887	378	1	2515
4	888	914	-1	2673
4	889	696	1	3333
4	890	475	1	2426
4	891	1149	1	1749
4	892	1039	1	1334
4	893	72	-1	1865
4	894	1035	-1	2220
4	895	1302	1	1653
4	896	637	1	3380
4	897	1034	-1	4193
4	898	677	-1	3546
4	899	934	1	3106
4	900	1233	1	2155
4	901	648	1	2883
4	902	1074	1	1174
4	903	148	1	1434
4	904	529	-1	1432
4	905	1087	-1	2647
4	906	1052	-1	1091
4	907	306	-1	3506
4	908	941	-1	4616
4	909	991	-1	4461
4	910	136	1	1491
4	911	713	-1	1340
4	912	1312	-1	2727
4	913	307	1	2638
4	914	1184	-1	4459
4	915	1298	1	2105
4	916	1253	1	1808
4	917	1322	1	2352
4	918	955	1	1300
4	919	614	-1	1655
4	920	1080	1	1155
4	921	1286	1	2753
4	922	77	-1	3877
4	923	425	1	1603
4	924	192	-1	1274
4	925	345	1	2095
4	926	435	1	2304
4	927	708	1	2323
4	928	1287	1	4122
4	929	209	1	1397
4	930	335	1	935
4	931	471	1	1335
4	932	936	1	1412
4	933	1037	-1	1001
4	934	1255	1	2137
4	935	440	1	2110
4	936	1308	1	1352
4	937	1256	-1	1548
4	938	650	1	1428
4	939	1317	1	1165
4	940	370	-1	1393
4	941	1024	1	2407
4	942	866	-1	1908
4	943	758	1	1349
4	944	730	1	992
4	945	1153	1	1022
4	946	930	-1	1199
4	947	1209	1	2524
4	948	956	-1	2054
4	949	858	1	2357
4	950	433	1	1271
4	951	645	1	873
4	952	464	-1	1704
4	953	783	1	1979
4	954	1081	-1	2303
4	955	1316	-1	2595
4	956	559	-1	2251
4	957	1194	1	3750
4	958	207	-1	4775
4	959	289	1	2874
4	960	1347	1	3403
4	961	667	-1	1509
4	962	182	-1	1383
4	963	1085	-1	1471
4	964	20	-1	2787
4	965	984	-1	1317
4	966	428	-1	1689
4	967	1327	-1	1962
4	968	18	1	2894
4	969	957	1	3521
4	970	474	1	1829
4	971	1178	-1	1244
4	972	746	1	1949
4	973	1126	1	2960
4	974	1289	1	2881
4	975	1355	1	1645
4	976	609	1	2938
4	977	669	-1	1114
4	978	1349	-1	2382
4	979	312	1	2715
4	980	629	-1	1628
4	981	218	-1	1429
4	982	642	1	2404
4	983	1267	-1	1315
4	984	1300	-1	7213
4	985	160	1	1126
4	986	112	1	2520
4	987	1319	1	1336
4	988	1171	1	2464
4	989	296	1	3442
4	990	725	1	1173
4	991	542	1	1511
4	992	1170	1	2986
4	993	879	-1	3187
4	994	590	-1	1615
4	995	478	1	3573
4	996	1210	-1	1613
4	997	1244	1	6520
4	998	227	1	2758
4	999	652	1	1819
4	1000	1124	1	3798
4	1001	514	1	2612
4	1002	298	-1	1178
4	1003	926	1	1327
4	1004	206	1	1568
4	1005	1101	1	1817
4	1006	799	1	1324
4	1007	1028	1	1572
4	1008	641	1	1200
4	1009	1212	1	1396
4	1010	477	1	1358
4	1011	507	-1	1712
4	1012	1016	1	2244
4	1013	825	1	1661
4	1014	139	1	1517
4	1015	509	-1	3239
4	1016	329	-1	1664
4	1017	861	-1	1246
4	1018	857	-1	2539
4	1019	1156	-1	1463
4	1020	512	1	7107
4	1021	980	-1	2232
4	1022	1382	1	3344
4	1023	107	1	1558
4	1024	366	1	2395
4	1025	747	-1	1965
4	1026	1164	-1	1433
4	1027	568	1	5922
4	1028	1108	-1	2875
4	1029	385	-1	1235
4	1030	809	-1	1217
4	1031	1296	1	1933
4	1032	1032	1	1856
4	1033	527	-1	1267
4	1034	141	-1	2364
4	1035	1076	-1	1321
4	1036	293	1	1382
4	1037	152	1	1182
4	1038	395	1	1236
4	1039	288	1	1194
4	1040	1364	1	1716
4	1041	135	1	1523
4	1042	1393	1	1223
4	1043	31	-1	2126
4	1044	952	1	1484
4	1045	1102	1	3966
4	1046	124	-1	3006
4	1047	1380	-1	2426
4	1048	1112	1	2060
4	1049	167	1	1480
4	1050	393	1	1652
4	1051	436	1	1578
4	1052	459	1	2508
4	1053	958	1	1867
4	1054	981	1	1529
4	1055	668	1	1532
4	1056	369	1	3200
4	1057	198	1	1770
4	1058	215	1	1916
4	1059	776	-1	1795
4	1060	504	-1	3181
4	1061	57	1	1910
4	1062	1356	-1	2545
4	1063	254	-1	1448
4	1064	251	1	5027
4	1065	271	1	2842
4	1066	240	1	1772
4	1067	840	1	2994
4	1068	596	1	1574
4	1069	19	-1	1426
4	1070	1020	-1	1867
4	1071	756	-1	1988
4	1072	1321	1	3085
4	1073	811	-1	1767
4	1074	855	1	2452
4	1075	387	1	1341
4	1076	194	1	1696
4	1077	740	1	1405
4	1078	1150	1	1336
4	1079	316	1	1270
4	1080	15	1	1354
4	1081	1226	-1	2033
4	1082	1031	1	4000
4	1083	907	1	1501
4	1084	237	-1	2668
4	1085	890	-1	1795
4	1086	41	1	3811
4	1087	1144	-1	2036
4	1088	517	1	1306
4	1089	1315	-1	1433
4	1090	601	-1	1515
4	1091	660	-1	1522
4	1092	924	-1	2307
4	1093	1274	-1	3058
4	1094	1155	-1	1971
4	1095	21	-1	2250
4	1096	887	-1	1387
4	1097	372	-1	1108
4	1098	749	-1	1075
4	1099	465	-1	1804
4	1100	693	-1	1008
4	1101	447	-1	2900
4	1102	350	1	1076
4	1103	1307	1	1083
4	1104	291	-1	1542
4	1105	174	-1	1413
4	1106	1133	1	2323
4	1107	171	1	1356
4	1108	43	-1	1907
4	1109	9	1	953
4	1110	589	1	1188
4	1111	876	-1	2018
4	1112	547	1	1604
4	1113	974	-1	4175
4	1114	1278	-1	1272
4	1115	1197	1	1123
4	1116	678	1	1026
4	1117	649	1	2523
4	1118	1242	1	985
4	1119	832	1	1978
4	1120	1069	1	2564
4	1121	971	1	1275
4	1122	859	1	1979
4	1123	970	-1	3530
4	1124	302	-1	2170
4	1125	1061	1	1474
4	1126	1191	-1	1199
4	1127	165	1	2977
4	1128	1056	1	1501
4	1129	793	1	3634
4	1130	942	-1	1865
4	1131	382	1	1105
4	1132	161	1	1540
4	1133	156	1	1742
4	1134	627	-1	3627
4	1135	1346	-1	2785
4	1136	1046	1	1179
4	1137	962	1	1440
4	1138	1199	1	1492
4	1139	610	1	3322
4	1140	763	1	7357
4	1141	1270	1	1433
4	1142	40	1	1758
4	1143	173	1	924
4	1144	1166	1	986
4	1145	402	1	2322
4	1146	802	-1	5095
4	1147	105	-1	1324
4	1148	381	1	4582
4	1149	633	1	1703
4	1150	183	1	4169
4	1151	138	1	1923
4	1152	524	1	1446
4	1153	323	1	1470
4	1154	99	1	2270
4	1155	456	1	1608
4	1156	1114	1	1491
4	1157	1357	-1	1489
4	1158	804	1	1843
4	1159	1128	1	2545
4	1160	1050	1	1611
4	1161	449	1	1066
4	1162	247	1	2786
4	1163	685	1	4028
4	1164	807	1	2278
4	1165	1279	-1	2151
4	1166	426	-1	1417
4	1167	93	1	5165
4	1168	1207	1	1643
4	1169	540	1	1547
4	1170	877	1	2173
4	1171	548	1	1502
4	1172	735	1	1902
4	1173	1251	-1	1941
4	1174	270	-1	1419
4	1175	658	1	4060
4	1176	432	1	2658
4	1177	322	1	2220
4	1178	51	1	1531
4	1179	639	-1	1483
4	1180	1066	1	1715
4	1181	898	-1	1145
4	1182	390	1	1771
4	1183	324	1	1392
4	1184	726	1	3091
4	1185	1360	-1	2237
4	1186	17	-1	2766
4	1187	154	-1	2611
4	1188	852	-1	1393
4	1189	582	1	2670
4	1190	1299	1	7115
4	1191	817	1	3039
4	1192	549	1	1070
4	1193	486	-1	1533
4	1194	513	1	882
4	1195	784	-1	1703
4	1196	768	-1	971
4	1197	1281	1	1527
4	1198	808	1	1088
4	1199	466	-1	3213
4	1200	442	1	2159
4	1201	418	1	9033
4	1202	1065	1	1628
4	1203	1044	1	2383
4	1204	332	-1	1956
4	1205	918	-1	2206
4	1206	157	1	1157
4	1207	1094	-1	2889
4	1208	1116	1	1738
4	1209	422	1	2754
4	1210	1331	1	2140
4	1211	1369	-1	3680
4	1212	680	1	3418
4	1213	470	-1	5766
4	1214	169	1	1433
4	1215	349	-1	3384
4	1216	881	-1	2302
4	1217	389	1	1309
4	1218	1090	1	1268
4	1219	70	-1	2277
4	1220	4	-1	1665
4	1221	772	-1	1590
4	1222	259	-1	5143
4	1223	506	-1	2404
4	1224	1310	1	1445
4	1225	1162	-1	1102
4	1226	202	-1	1372
4	1227	672	-1	1667
4	1228	920	1	1329
4	1229	593	1	1339
4	1230	805	-1	1312
4	1231	796	1	2389
4	1232	150	1	1313
4	1233	253	-1	1256
4	1234	1173	1	2173
4	1235	1337	1	2083
4	1236	371	-1	1498
4	1237	487	1	2699
4	1238	790	1	2302
4	1239	468	1	2482
4	1240	671	-1	4122
4	1241	129	-1	1406
4	1242	912	-1	1433
4	1243	86	-1	4256
4	1244	803	1	2118
4	1245	431	1	1573
4	1246	1109	-1	2379
4	1247	63	-1	4549
4	1248	168	1	1452
4	1249	1330	1	1055
4	1250	1254	-1	1265
4	1251	842	1	2388
4	1252	1139	1	1126
4	1253	1220	1	1903
4	1254	91	-1	2195
4	1255	1151	1	2922
4	1256	854	1	1774
4	1257	410	1	4107
4	1258	753	1	2016
4	1259	863	1	1657
4	1260	964	1	1486
4	1261	78	1	2199
4	1262	347	1	1740
4	1263	458	1	1365
4	1264	130	-1	3413
4	1265	1142	1	4375
4	1266	149	-1	1678
4	1267	1370	1	1303
4	1268	699	1	1041
4	1269	1358	1	2077
4	1270	577	-1	1334
4	1271	1033	1	1774
4	1272	5	-1	1606
4	1273	300	1	1662
4	1274	236	-1	2929
4	1275	846	-1	1825
4	1276	483	-1	2041
4	1277	132	-1	1201
4	1278	885	1	7287
4	1279	865	1	4809
4	1280	1384	1	1106
4	1281	1110	1	2272
4	1282	1243	1	1294
4	1283	621	1	1223
4	1284	1323	-1	2287
4	1285	659	-1	1806
4	1286	277	-1	2806
4	1287	54	-1	4442
4	1288	278	1	3602
4	1289	623	1	1166
4	1290	451	-1	1663
4	1291	1105	1	1221
4	1292	176	-1	2247
4	1293	234	1	2689
4	1294	1290	-1	1256
4	1295	103	1	970
4	1296	120	-1	2859
4	1297	608	-1	1804
4	1298	1175	-1	1373
4	1299	1385	-1	2387
4	1300	191	-1	1480
4	1301	55	1	2811
4	1302	411	1	1610
4	1303	543	1	1532
4	1304	1059	1	3544
4	1305	219	1	2179
4	1306	624	1	1961
4	1307	1213	1	1491
4	1308	309	1	885
4	1309	348	1	1444
4	1310	1198	1	1771
4	1311	268	-1	1506
4	1312	563	-1	3653
4	1313	897	1	1344
4	1314	666	1	1193
4	1315	95	1	1454
4	1316	281	1	2213
4	1317	622	1	3060
4	1318	1343	1	1919
4	1319	679	1	2070
4	1320	1063	1	1739
4	1321	1227	-1	1706
4	1322	1222	-1	1756
4	1323	539	1	1712
4	1324	1362	-1	5062
4	1325	358	-1	3557
4	1326	315	1	1562
4	1327	1219	1	1169
4	1328	1344	-1	1716
4	1329	766	1	9502
4	1330	684	1	1117
4	1331	166	1	1464
4	1332	374	-1	3839
4	1333	170	-1	1968
4	1334	1007	1	4843
4	1335	835	1	2122
4	1336	953	1	1333
4	1337	878	1	2980
4	1338	1228	1	1052
4	1339	264	1	1689
4	1340	145	1	9627
4	1341	654	1	4565
4	1342	1068	1	1366
4	1343	352	1	1858
4	1344	1193	-1	2972
4	1345	1245	1	1348
4	1346	528	-1	2432
4	1347	75	1	1102
4	1348	1100	-1	2428
4	1349	88	-1	3833
4	1350	785	1	2014
4	1351	630	1	1969
4	1352	365	1	1628
4	1353	597	1	1337
4	1354	44	-1	1232
4	1355	68	1	1472
4	1356	1313	-1	1354
4	1357	26	-1	1394
4	1358	1329	-1	1252
4	1359	98	-1	2574
4	1360	187	-1	2317
4	1361	653	-1	2482
4	1362	661	-1	3349
4	1363	144	-1	1852
4	1364	299	-1	3959
4	1365	1269	1	3072
4	1366	421	1	1823
4	1367	880	-1	5750
4	1368	295	1	2232
4	1369	1324	-1	1826
4	1370	404	-1	1929
4	1371	516	1	1060
4	1372	525	-1	1542
4	1373	848	1	1634
4	1374	388	1	1868
4	1375	1026	1	2053
4	1376	1239	1	1431
4	1377	1019	-1	3436
4	1378	919	-1	1505
4	1379	119	-1	2550
4	1380	1205	-1	1168
4	1381	587	1	1902
4	1382	14	1	2269
4	1383	1224	1	2504
4	1384	928	1	1783
4	1385	1048	1	5053
4	1386	231	1	1878
4	1387	1399	1	4200
4	1388	862	-1	4863
4	1389	1104	-1	3329
4	1390	420	1	1981
4	1391	1018	1	2019
4	1392	575	1	2530
4	1393	1177	1	3197
4	1394	342	1	2925
4	1395	407	1	3900
4	1396	392	1	1696
4	1397	122	1	2924
4	1398	355	1	3370
4	1399	311	-1	4393
4	1400	1339	1	2210
