subject	trial	stimulus	response	responsetime
1	1	519	3	18158
1	2	382	2	32024
1	3	195	2	1207
1	4	883	2	2696
1	5	1246	3	1367
1	6	457	3	2112
1	7	475	1	2609
1	8	322	1	1160
1	9	1289	2	3000
1	10	664	4	4696
1	11	579	3	1776
1	12	945	2	2608
1	13	1250	2	1512
1	14	53	1	1152
1	15	1338	2	1448
1	16	1114	3	1240
1	17	1116	2	1447
1	18	1041	3	1784
1	19	638	2	1521
1	20	1382	1	2552
1	21	1335	2	3032
1	22	182	4	3135
1	23	725	3	1353
1	24	752	3	7873
1	25	1228	2	1375
1	26	506	2	2167
1	27	738	3	2064
1	28	534	2	1352
1	29	252	3	3441
1	30	582	3	3112
1	31	1290	2	1480
1	32	1070	2	1784
1	33	630	3	2752
1	34	156	2	1896
1	35	167	3	2136
1	36	1014	4	1000
1	37	832	3	2352
1	38	820	3	2008
1	39	690	3	3144
1	40	1202	1	2096
1	41	1034	2	4208
1	42	394	3	1311
1	43	1252	2	2729
1	44	915	2	2016
1	45	1259	2	1680
1	46	940	3	5200
1	47	1045	2	4024
1	48	937	3	3520
1	49	575	2	1144
1	50	18	3	1976
1	51	20	3	2511
1	52	1315	3	2561
1	53	614	3	3928
1	54	1064	2	3320
1	55	1146	1	1696
1	56	1287	2	7808
1	57	1035	1	2464
1	58	349	3	6144
1	59	603	3	3160
1	60	381	3	1488
1	61	104	3	2632
1	62	536	1	1192
1	63	905	3	2479
1	64	1265	2	1856
1	65	1051	2	3553
1	66	513	3	1472
1	67	677	2	1776
1	68	545	2	1824
1	69	160	3	3256
1	70	290	2	1944
1	71	887	3	2768
1	72	1242	2	3112
1	73	600	2	3152
1	74	100	3	1752
1	75	388	3	2632
1	76	1030	3	2616
1	77	472	3	1920
1	78	1088	4	1200
1	79	1362	2	3728
1	80	123	3	1680
1	81	1069	3	1663
1	82	1120	3	1913
1	83	1331	2	6424
1	84	359	2	3152
1	85	321	2	5184
1	86	286	3	3984
1	87	1208	2	3304
1	88	1288	3	1104
1	89	1304	4	3368
1	90	521	3	4024
1	91	1360	3	4912
1	92	979	3	3120
1	93	549	4	912
1	94	680	4	1584
1	95	253	3	2224
1	96	510	1	2512
1	97	25	2	1952
1	98	1197	3	3400
1	99	1256	3	3320
1	100	1236	2	3488
1	101	1182	3	7744
1	102	1086	2	3175
1	103	478	3	1240
1	104	46	3	4600
1	105	1091	4	3929
1	106	62	3	1887
1	107	22	2	4784
1	108	571	2	2960
1	109	1166	2	1888
1	110	586	2	4408
1	111	1380	2	4817
1	112	323	3	1751
1	113	952	2	6225
1	114	508	1	1800
1	115	1025	3	3496
1	116	1157	3	1911
1	117	1389	2	6273
1	118	784	3	3975
1	119	620	4	1537
1	120	1218	2	21440
1	121	462	2	2567
1	122	1319	1	1736
1	123	733	3	2824
1	124	37	2	2032
1	125	272	3	1296
1	126	925	3	1600
1	127	1254	3	2945
1	128	801	3	4223
1	129	1169	3	1520
1	130	1222	2	2720
1	131	422	2	8760
1	132	750	3	1321
1	133	1280	2	3424
1	134	376	3	5088
1	135	931	2	1728
1	136	980	2	2432
1	137	669	4	1807
1	138	443	2	3769
1	139	1096	2	8480
1	140	932	3	1095
1	141	1103	3	1001
1	142	1235	3	1343
1	143	709	4	1441
1	144	977	3	5735
1	145	610	4	2000
1	146	267	3	2856
1	147	542	2	3481
1	148	673	3	5863
1	149	360	3	3312
1	150	1311	4	1584
1	151	1078	4	2433
1	152	813	4	1503
1	153	537	2	3226
1	154	1185	2	3032
1	155	486	3	3263
1	156	222	3	3048
1	157	106	2	4976
1	158	795	2	5023
1	159	1026	3	4368
1	160	55	2	3232
1	161	1392	2	2737
1	162	165	3	3048
1	163	1377	3	11112
1	164	1028	2	1695
1	165	662	2	2352
1	166	756	3	1800
1	167	19	3	1904
1	168	1318	3	1496
1	169	1291	4	2073
1	170	240	4	1543
1	171	825	3	3377
1	172	1243	2	2191
1	173	1251	2	2528
1	174	632	2	13737
1	175	1205	3	1143
1	176	76	2	2632
1	177	138	3	2897
1	178	128	2	4569
1	179	205	2	3431
1	180	789	4	1639
1	181	560	3	1472
1	182	543	2	3992
1	183	993	3	3626
1	184	211	3	2567
1	185	1399	3	2344
1	186	199	3	4311
1	187	215	4	1537
1	188	929	3	3777
1	189	31	2	4896
1	190	1105	2	1990
1	191	1133	2	6178
1	192	73	3	1927
1	193	1188	3	5367
1	194	363	2	4417
1	195	230	2	2016
1	196	307	3	4056
1	197	652	3	2593
1	198	1173	4	1486
1	199	1178	1	3289
1	200	987	2	5721
1	201	861	3	6728
1	202	1181	2	2257
1	203	354	2	2208
1	204	1158	2	1655
1	205	1186	3	1856
1	206	1293	2	2298
1	207	674	3	1775
1	208	904	4	2024
1	209	1054	1	1335
1	210	434	2	7648
1	211	591	3	2609
1	212	1138	3	2135
1	213	897	1	1425
1	214	377	2	3432
1	215	77	1	3328
1	216	325	2	1519
1	217	829	2	3352
1	218	39	3	1553
1	219	1017	2	4033
1	220	1094	2	2246
1	221	1229	2	11714
1	222	139	3	2656
1	223	708	1	2726
1	224	912	2	4769
1	225	174	2	2952
1	226	1241	3	1625
1	227	329	3	2822
1	228	228	4	1185
1	229	732	2	10551
1	230	464	4	3657
1	231	201	2	2391
1	232	146	3	8376
1	233	284	4	1898
1	234	698	3	2999
1	235	860	2	2999
1	236	672	3	1841
1	237	598	3	2048
1	238	840	3	2287
1	239	1313	2	5594
1	240	921	4	1894
1	241	1292	4	1552
1	242	421	3	6498
1	243	876	2	1855
1	244	1053	2	4463
1	245	480	1	1256
1	246	1320	3	4072
1	247	198	2	1633
1	248	1371	2	9751
1	249	193	2	5800
1	250	479	2	1780
1	251	248	3	1301
1	252	737	3	2439
1	253	87	2	3296
1	254	641	3	11386
1	255	1149	2	1639
1	256	972	2	1928
1	257	1076	3	7168
1	258	997	3	1120
1	259	1056	3	1887
1	260	1257	3	1712
1	261	1233	3	1216
1	262	1052	2	2697
1	263	330	2	1247
1	264	1219	4	1353
1	265	428	4	1087
1	266	720	3	2120
1	267	282	2	1785
1	268	489	3	2271
1	269	400	3	5288
1	270	159	2	2394
1	271	289	1	1847
1	272	943	3	1903
1	273	1007	1	4490
1	274	1151	3	2646
1	275	88	3	2515
1	276	635	4	2558
1	277	754	2	8377
1	278	60	2	1622
1	279	1015	3	1977
1	280	539	3	2881
1	281	501	2	2727
1	282	126	2	1216
1	283	1302	1	7417
1	284	168	2	1399
1	285	1260	2	1168
1	286	396	2	2240
1	287	654	3	1327
1	288	373	2	1786
1	289	424	3	1663
1	290	1295	2	2376
1	291	1021	2	1320
1	292	667	3	1440
1	293	717	2	2240
1	294	1400	3	1559
1	295	82	3	2169
1	296	988	2	3928
1	297	343	2	3473
1	298	1274	3	1903
1	299	226	2	5864
1	300	280	3	8297
1	301	716	3	2624
1	302	1355	2	4137
1	303	951	3	1190
1	304	1126	2	2554
1	305	270	2	1696
1	306	1155	3	1375
1	307	263	3	1897
1	308	1359	3	1630
1	309	440	3	2145
1	310	892	2	4072
1	311	810	3	2352
1	312	175	3	2570
1	313	703	2	2838
1	314	896	2	12713
1	315	1055	3	1670
1	316	758	2	1049
1	317	824	2	5792
1	318	49	3	1880
1	319	176	4	1656
1	320	191	1	1991
1	321	493	2	3553
1	322	470	2	3320
1	323	1316	3	4016
1	324	16	3	3665
1	325	278	2	3400
1	326	1174	2	2671
1	327	939	2	10745
1	328	1273	3	1382
1	329	1223	3	1546
1	330	1237	2	1639
1	331	565	2	4433
1	332	959	3	3207
1	333	584	3	2056
1	334	713	2	3312
1	335	1072	3	1591
1	336	864	3	2549
1	337	998	2	1540
1	338	342	3	2000
1	339	1177	1	1736
1	340	244	2	1464
1	341	121	2	1655
1	342	1066	2	1593
1	343	608	3	2642
1	344	210	3	1991
1	345	61	2	1215
1	346	889	1	1520
1	347	179	2	4144
1	348	627	2	4089
1	349	802	3	3710
1	350	392	2	2161
1	351	1358	2	21264
1	352	1009	2	1104
1	353	1148	1	2032
1	354	910	3	1720
1	355	1150	3	1792
1	356	826	1	1208
1	357	637	2	4992
1	358	393	3	4655
1	359	1343	3	1673
1	360	463	2	2752
1	361	1121	3	1344
1	362	1397	2	2504
1	363	98	2	2401
1	364	740	3	1504
1	365	679	3	3055
1	366	1303	2	8608
1	367	1153	3	2128
1	368	580	3	1511
1	369	505	2	5297
1	370	1124	2	1368
1	371	368	2	4184
1	372	681	2	1889
1	373	83	3	3439
1	374	525	3	2896
1	375	1378	2	2121
1	376	1347	2	7064
1	377	148	2	10670
1	378	189	2	12209
1	379	460	3	2480
1	380	687	3	1232
1	381	1258	3	2304
1	382	666	4	1159
1	383	1038	3	2178
1	384	200	3	3904
1	385	384	2	8246
1	386	624	2	1824
1	387	522	2	13065
1	388	552	3	3393
1	389	417	3	1175
1	390	68	1	1560
1	391	1184	3	6039
1	392	312	1	1424
1	393	1145	2	1120
1	394	1309	4	2713
1	395	1152	3	2400
1	396	697	2	1656
1	397	633	3	4648
1	398	596	2	2872
1	399	846	3	1184
1	400	1002	3	2848
1	401	1266	3	1287
1	402	830	3	1289
1	403	782	3	3199
1	404	901	3	2753
1	405	266	4	2384
1	406	362	3	2576
1	407	1122	3	1630
1	408	1080	4	1313
1	409	1388	3	3185
1	410	859	2	1758
1	411	378	2	2969
1	412	1011	3	1943
1	413	916	1	2594
1	414	941	2	1343
1	415	97	2	4497
1	416	879	2	6559
1	417	1391	2	1408
1	418	1046	2	6479
1	419	1039	3	2065
1	420	14	3	9161
1	421	838	3	1311
1	422	338	2	2473
1	423	762	3	1447
1	424	145	3	2032
1	425	923	3	2583
1	426	207	3	3353
1	427	281	2	6385
1	428	403	2	5102
1	429	606	2	1074
1	430	1013	2	18142
1	431	413	2	2097
1	432	1277	3	1672
1	433	187	2	1175
1	434	408	2	2978
1	435	1106	3	2078
1	436	928	2	6553
1	437	366	3	1849
1	438	917	1	1744
1	439	766	2	1047
1	440	978	3	3184
1	441	1073	2	1504
1	442	1217	2	1569
1	443	587	3	7975
1	444	1136	3	1968
1	445	772	2	5953
1	446	1262	3	1104
1	447	203	2	1992
1	448	649	3	2795
1	449	920	3	5669
1	450	264	4	3126
1	451	559	3	1826
1	452	595	2	4040
1	453	968	1	2086
1	454	1156	3	2537
1	455	1074	2	1689
1	456	975	3	13120
1	457	63	3	7368
1	458	163	2	4184
1	459	524	2	1015
1	460	389	2	3081
1	461	299	3	1647
1	462	866	3	2337
1	463	1012	3	1336
1	464	1092	2	1960
1	465	178	2	5839
1	466	173	2	4008
1	467	1089	2	1720
1	468	383	2	1065
1	469	1033	2	1127
1	470	298	3	963
1	471	1060	3	1164
1	472	593	2	1896
1	473	1049	2	5441
1	474	500	2	3897
1	475	455	1	2087
1	476	458	3	1551
1	477	601	3	1538
1	478	271	2	1487
1	479	287	2	1097
1	480	65	3	2043
1	481	1117	3	2156
1	482	1269	2	2472
1	483	308	3	3113
1	484	696	2	1895
1	485	1239	2	1624
1	486	70	3	2297
1	487	1244	3	5735
1	488	1370	2	1247
1	489	1224	1	1473
1	490	609	3	2568
1	491	668	1	4248
1	492	974	3	4809
1	493	982	2	3056
1	494	1350	3	1792
1	495	1135	2	9856
1	496	546	3	1848
1	497	872	2	1248
1	498	235	1	1031
1	499	938	2	9712
1	500	807	3	1352
1	501	736	4	2680
1	502	143	3	1800
1	503	255	2	1232
1	504	327	3	1241
1	505	1047	3	1382
1	506	38	2	1648
1	507	816	3	1144
1	508	171	1	2089
1	509	949	2	1304
1	510	886	2	1391
1	511	1044	3	1353
1	512	1093	2	2103
1	513	238	2	1601
1	514	815	2	1118
1	515	523	2	1746
1	516	1023	3	1192
1	517	410	4	1111
1	518	563	3	1321
1	519	1207	2	2544
1	520	496	3	3135
1	521	518	2	2328
1	522	676	1	4409
1	523	140	3	1551
1	524	1085	3	1633
1	525	663	2	2736
1	526	305	4	2520
1	527	401	2	2544
1	528	99	2	1767
1	529	966	2	3704
1	530	44	1	2304
1	531	1183	3	1913
1	532	350	3	2168
1	533	313	3	1200
1	534	749	4	1232
1	535	467	3	1592
1	536	1351	2	1312
1	537	1018	1	1407
1	538	52	1	2609
1	539	751	2	1848
1	540	471	2	1248
1	541	372	3	2375
1	542	1123	3	1799
1	543	334	3	1666
1	544	416	3	1159
1	545	405	2	1896
1	546	206	3	1665
1	547	1298	3	1736
1	548	1247	3	2016
1	549	1210	4	1304
1	550	15	2	1734
1	551	530	4	1673
1	552	965	2	3945
1	553	576	2	1423
1	554	346	2	2849
1	555	880	2	2424
1	556	1115	3	1423
1	557	745	2	2232
1	558	724	3	1513
1	559	141	2	1503
1	560	197	3	2121
1	561	1220	4	1430
1	562	963	2	2193
1	563	418	2	5897
1	564	1006	2	1864
1	565	202	4	1696
1	566	604	3	1560
1	567	335	2	2696
1	568	678	1	2235
1	569	612	1	2149
1	570	944	3	1640
1	571	133	2	1664
1	572	714	2	3199
1	573	611	3	1753
1	574	1232	3	1096
1	575	844	3	2720
1	576	991	3	2360
1	577	492	3	1447
1	578	120	4	2681
1	579	804	2	2032
1	580	69	2	1784
1	581	1087	4	1592
1	582	115	3	3488
1	583	177	2	1583
1	584	707	2	2857
1	585	262	2	4687
1	586	303	3	13025
1	587	792	1	2656
1	588	960	2	1503
1	589	746	2	2273
1	590	484	3	1704
1	591	490	3	1072
1	592	45	2	4504
1	593	1195	3	1391
1	594	1167	2	1873
1	595	1101	2	1591
1	596	1310	3	1865
1	597	51	2	3080
1	598	514	2	6824
1	599	256	3	952
1	600	1396	3	1064
1	601	250	3	3681
1	602	1385	2	2672
1	603	155	2	1303
1	604	1261	2	1233
1	605	1067	3	1839
1	606	1226	3	921
1	607	665	2	1576
1	608	239	2	1071
1	609	970	4	1785
1	610	1040	4	2096
1	611	345	2	2384
1	612	779	1	1463
1	613	293	2	2777
1	614	547	2	1351
1	615	847	4	1775
1	616	799	3	1170
1	617	1172	3	1424
1	618	773	2	1510
1	619	1339	2	8305
1	620	839	3	1268
1	621	692	3	1053
1	622	1330	3	1920
1	623	621	4	2320
1	624	217	2	2519
1	625	870	3	1353
1	626	357	2	2848
1	627	734	2	2295
1	628	1240	4	1673
1	629	953	2	2512
1	630	1179	3	1416
1	631	194	3	1680
1	632	790	2	1399
1	633	33	3	3257
1	634	28	3	1623
1	635	850	2	8049
1	636	71	3	2008
1	637	574	3	1512
1	638	783	2	1223
1	639	348	3	2152
1	640	283	2	2887
1	641	1268	2	1289
1	642	509	3	1496
1	643	682	2	3376
1	644	837	2	1321
1	645	695	1	1271
1	646	1337	3	2200
1	647	1190	3	2305
1	648	788	3	1784
1	649	425	3	3888
1	650	763	2	1471
1	651	409	3	3632
1	652	857	4	1337
1	653	613	3	1096
1	654	1365	4	2248
1	655	406	4	1776
1	656	427	3	3728
1	657	130	4	1696
1	658	24	2	1304
1	659	275	2	1216
1	660	685	2	1999
1	661	103	2	2193
1	662	446	3	1703
1	663	487	3	2369
1	664	1010	3	1383
1	665	983	3	1928
1	666	445	3	2369
1	667	581	2	1416
1	668	711	4	1664
1	669	729	3	2400
1	670	842	1	4504
1	671	1333	3	1824
1	672	650	2	1984
1	673	739	2	4360
1	674	285	3	2063
1	675	466	3	4033
1	676	491	3	1216
1	677	622	3	2280
1	678	1286	2	3544
1	679	1314	3	1144
1	680	35	3	1439
1	681	1279	2	1088
1	682	1281	2	3609
1	683	658	2	1152
1	684	337	3	1927
1	685	1336	3	2057
1	686	1278	1	1497
1	687	1341	2	1607
1	688	705	2	2696
1	689	898	3	3032
1	690	741	2	2544
1	691	273	2	2432
1	692	639	2	4080
1	693	722	2	2271
1	694	885	3	4969
1	695	1267	3	1536
1	696	473	2	1520
1	697	47	3	3744
1	698	93	2	1929
1	699	1065	2	1774
1	700	809	3	5432
1	701	888	3	1736
1	702	936	2	1231
1	703	686	2	1095
1	704	599	3	1401
1	705	218	3	1937
1	706	1386	2	1152
1	707	91	3	2391
1	708	1079	2	1640
1	709	743	3	2144
1	710	1068	2	1777
1	711	927	2	2432
1	712	423	3	1639
1	713	79	2	1041
1	714	1108	3	1816
1	715	723	3	1183
1	716	567	2	1817
1	717	347	3	1400
1	718	447	2	1544
1	719	1063	2	4880
1	720	759	2	3328
1	721	7	2	1871
1	722	42	3	1417
1	723	710	1	1721
1	724	499	2	6719
1	725	315	3	2455
1	726	786	3	1929
1	727	8	3	1224
1	728	353	2	1496
1	729	532	3	2432
1	730	1264	3	1335
1	731	1275	3	1929
1	732	129	2	1576
1	733	957	4	1239
1	734	909	3	3177
1	735	996	3	2161
1	736	702	3	1487
1	737	902	2	1371
1	738	712	3	3341
1	739	818	2	1784
1	740	767	2	904
1	741	814	3	5288
1	742	900	2	2280
1	743	643	3	1368
1	744	776	3	2264
1	745	336	3	1552
1	746	704	3	8632
1	747	132	3	2175
1	748	867	3	1145
1	749	1225	4	1255
1	750	331	2	1249
1	751	4	3	2407
1	752	231	3	2841
1	753	871	4	3784
1	754	564	3	1784
1	755	653	3	1832
1	756	764	1	2344
1	757	64	4	1736
1	758	853	2	1664
1	759	66	3	2783
1	760	136	3	1369
1	761	878	2	3224
1	762	1216	3	1728
1	763	1363	2	2607
1	764	386	2	1512
1	765	1161	2	1065
1	766	1387	2	2807
1	767	721	2	1873
1	768	214	2	1520
1	769	1353	1	2312
1	770	533	3	5888
1	771	204	3	1129
1	772	1130	3	1782
1	773	395	3	3498
1	774	602	3	1295
1	775	557	4	1336
1	776	651	2	1425
1	777	358	2	3326
1	778	645	2	1537
1	779	1270	3	1023
1	780	483	2	2601
1	781	701	3	1480
1	782	908	2	2288
1	783	517	3	1152
1	784	616	2	3343
1	785	683	3	1225
1	786	1325	2	1544
1	787	718	2	2160
1	788	856	2	9616
1	789	224	2	1135
1	790	340	4	1321
1	791	848	3	936
1	792	781	3	1551
1	793	352	3	1744
1	794	657	3	2449
1	795	819	3	2119
1	796	875	2	3665
1	797	646	2	1351
1	798	233	2	6097
1	799	1354	2	2151
1	800	1029	3	1441
1	801	1000	3	5072
1	802	1271	3	1337
1	803	260	3	4598
1	804	1175	3	1618
1	805	647	2	1423
1	806	1134	3	1352
1	807	868	2	1144
1	808	1154	3	1399
1	809	787	2	961
1	810	319	4	1640
1	811	43	2	2497
1	812	254	4	1376
1	813	955	3	1168
1	814	436	3	967
1	815	1058	2	4407
1	816	551	1	1313
1	817	833	2	2247
1	818	660	3	1521
1	819	1201	4	1543
1	820	186	3	1528
1	821	933	2	5225
1	822	213	3	1376
1	823	597	3	1727
1	824	798	3	1001
1	825	365	2	1640
1	826	245	1	1344
1	827	884	3	2112
1	828	914	2	1088
1	829	295	2	1305
1	830	947	2	1918
1	831	294	3	1841
1	832	1299	3	2296
1	833	1276	2	1528
1	834	1332	3	2801
1	835	803	3	3270
1	836	1227	3	1272
1	837	619	4	1313
1	838	913	2	1447
1	839	1284	3	1705
1	840	899	3	2176
1	841	40	3	1239
1	842	1100	3	1849
1	843	995	2	4033
1	844	1214	2	2087
1	845	1283	3	1224
1	846	1209	2	3423
1	847	234	1	1593
1	848	507	2	1999
1	849	735	2	3081
1	850	568	3	3777
1	851	661	3	2302
1	852	948	3	3482
1	853	1323	2	2059
1	854	125	2	4316
1	855	924	2	1271
1	856	78	2	1217
1	857	1090	2	1111
1	858	950	1	1545
1	859	541	2	1848
1	860	1048	2	3105
1	861	715	2	2455
1	862	572	3	3928
1	863	227	2	1591
1	864	1249	3	3017
1	865	1194	3	2095
1	866	688	2	2426
1	867	594	3	2743
1	868	771	3	3435
1	869	180	3	3184
1	870	430	3	4136
1	871	843	3	6028
1	872	144	2	3265
1	873	973	2	3889
1	874	268	2	2370
1	875	367	2	1309
1	876	92	2	1183
1	877	1326	3	1988
1	878	276	3	1492
1	879	111	2	2873
1	880	494	3	1391
1	881	1196	4	1496
1	882	1125	3	1673
1	883	1369	3	3072
1	884	694	3	1463
1	885	56	3	1161
1	886	615	2	1408
1	887	127	3	1512
1	888	906	2	2088
1	889	1213	4	1712
1	890	454	3	2232
1	891	355	3	3129
1	892	691	2	3609
1	893	237	3	1629
1	894	1036	2	2057
1	895	926	3	1912
1	896	236	3	4176
1	897	251	2	1944
1	898	1300	3	1184
1	899	515	2	1448
1	900	1361	4	1897
1	901	699	3	2393
1	902	719	2	3784
1	903	1144	2	2872
1	904	58	3	6447
1	905	1127	2	1144
1	906	411	2	2808
1	907	755	2	4953
1	908	1027	2	1039
1	909	1253	3	2095
1	910	990	2	4290
1	911	398	3	959
1	912	317	2	1393
1	913	841	3	1982
1	914	607	3	865
1	915	623	3	1183
1	916	954	3	929
1	917	849	2	1427
1	918	1212	3	1230
1	919	550	3	1671
1	920	328	2	1984
1	921	152	2	1624
1	922	512	1	1304
1	923	461	2	2488
1	924	774	2	1408
1	925	36	1	1537
1	926	1141	2	1575
1	927	108	3	1191
1	928	726	3	1265
1	929	351	3	2367
1	930	863	2	1392
1	931	379	2	2450
1	932	300	3	2815
1	933	192	2	2641
1	934	636	3	1536
1	935	1390	3	4920
1	936	1327	4	1087
1	937	962	2	1633
1	938	1346	3	975
1	939	640	1	3281
1	940	769	2	3224
1	941	828	2	1542
1	942	451	3	3880
1	943	589	2	1673
1	944	531	3	4856
1	945	12	4	2321
1	946	642	3	2280
1	947	780	4	2408
1	948	1321	4	1542
1	949	468	3	2522
1	950	1398	2	4670
1	951	834	2	2560
1	952	1192	2	2361
1	953	75	3	1312
1	954	1189	2	1080
1	955	157	2	1352
1	956	118	2	2375
1	957	1104	3	1369
1	958	796	2	1344
1	959	150	1	1191
1	960	1215	3	3985
1	961	456	1	1695
1	962	185	2	8378
1	963	261	2	2639
1	964	961	3	911
1	965	753	3	2082
1	966	292	3	1959
1	967	835	3	6192
1	968	942	4	1617
1	969	1137	3	3048
1	970	1113	3	1910
1	971	1384	3	1552
1	972	269	3	2048
1	973	1032	2	2298
1	974	1168	3	5295
1	975	332	2	2217
1	976	324	2	1358
1	977	528	2	3674
1	978	502	3	3112
1	979	109	3	2175
1	980	566	4	1353
1	981	17	3	1142
1	982	671	2	2409
1	983	626	3	2529
1	984	154	3	5095
1	985	1187	1	2000
1	986	380	2	1297
1	987	190	3	1983
1	988	102	4	1313
1	989	1170	3	2088
1	990	794	3	1648
1	991	279	4	2391
1	992	911	3	2807
1	993	1393	1	1722
1	994	1022	2	5095
1	995	101	2	5151
1	996	223	3	1320
1	997	992	2	1744
1	998	1102	2	1392
1	999	1016	3	1297
1	1000	1376	3	1975
1	1001	858	3	1680
1	1002	1204	2	1089
1	1003	538	3	976
1	1004	555	3	1215
1	1005	1312	1	1201
1	1006	999	2	1543
1	1007	617	3	945
1	1008	1163	3	1216
1	1009	1199	2	872
1	1010	1081	3	2576
1	1011	1003	2	1064
1	1012	760	3	1295
1	1013	80	2	1880
1	1014	117	3	2144
1	1015	288	1	2105
1	1016	935	3	3535
1	1017	2	3	1970
1	1018	656	3	1343
1	1019	800	4	2232
1	1020	836	3	1720
1	1021	1004	2	2081
1	1022	112	3	1416
1	1023	497	2	6406
1	1024	147	3	2114
1	1025	1308	4	1839
1	1026	369	3	2113
1	1027	1075	2	1054
1	1028	166	3	2226
1	1029	845	3	2816
1	1030	1230	3	1687
1	1031	1112	3	1223
1	1032	747	2	1089
1	1033	527	3	1711
1	1034	448	3	3385
1	1035	482	1	1737
1	1036	1083	2	2544
1	1037	402	2	1655
1	1038	1294	3	1104
1	1039	1024	1	1847
1	1040	770	2	1394
1	1041	137	4	1359
1	1042	212	3	1464
1	1043	1307	3	1312
1	1044	1119	3	1865
1	1045	390	3	3848
1	1046	808	2	13734
1	1047	529	4	3033
1	1048	862	3	1025
1	1049	169	2	1262
1	1050	135	2	1097
1	1051	775	1	1624
1	1052	74	3	2256
1	1053	450	3	1920
1	1054	1171	3	1401
1	1055	865	2	1599
1	1056	134	3	3248
1	1057	414	3	1024
1	1058	854	2	2455
1	1059	1132	3	1683
1	1060	625	3	4007
1	1061	1143	3	1615
1	1062	748	2	1424
1	1063	1348	3	4784
1	1064	706	3	4536
1	1065	438	3	4209
1	1066	583	3	1640
1	1067	994	2	1936
1	1068	113	2	1615
1	1069	874	3	1513
1	1070	1098	3	3631
1	1071	216	4	1736
1	1072	220	2	3588
1	1073	50	3	3356
1	1074	1352	3	1368
1	1075	364	4	1513
1	1076	1128	3	1702
1	1077	1162	2	1376
1	1078	1221	3	2122
1	1079	170	3	3512
1	1080	444	2	7190
1	1081	1255	2	5465
1	1082	374	2	2247
1	1083	309	2	5873
1	1084	1211	3	1367
1	1085	1245	2	1410
1	1086	894	2	1239
1	1087	27	2	1128
1	1088	1203	3	1937
1	1089	5	2	1336
1	1090	488	3	1278
1	1091	812	3	1410
1	1092	1147	3	1223
1	1093	934	3	2160
1	1094	437	3	1264
1	1095	188	2	1200
1	1096	1097	3	2593
1	1097	526	2	1288
1	1098	1165	3	2400
1	1099	257	3	2431
1	1100	258	3	2344
1	1101	628	3	2752
1	1102	142	4	1537
1	1103	208	3	1574
1	1104	1272	2	1529
1	1105	1342	3	1928
1	1106	356	3	2585
1	1107	1305	3	1783
1	1108	1059	4	1432
1	1109	415	3	2368
1	1110	107	2	1824
1	1111	554	3	1967
1	1112	344	3	2649
1	1113	1296	3	1665
1	1114	1071	2	1104
1	1115	116	3	2208
1	1116	1180	3	2046
1	1117	485	3	1458
1	1118	1374	2	3383
1	1119	1282	3	1320
1	1120	1383	3	1184
1	1121	412	3	1920
1	1122	259	4	1336
1	1123	890	4	1680
1	1124	225	4	3240
1	1125	172	3	2535
1	1126	1159	2	1385
1	1127	535	3	2097
1	1128	777	2	1520
1	1129	158	2	1336
1	1130	399	1	1352
1	1131	498	3	1319
1	1132	558	2	1208
1	1133	1198	3	1680
1	1134	119	3	1296
1	1135	439	2	2152
1	1136	629	2	1472
1	1137	757	3	1576
1	1138	297	3	3505
1	1139	806	3	2128
1	1140	1001	2	983
1	1141	1160	2	3305
1	1142	339	3	1839
1	1143	1306	2	1136
1	1144	986	2	2104
1	1145	320	2	4929
1	1146	1164	3	1816
1	1147	852	2	1223
1	1148	981	3	1056
1	1149	1364	2	4063
1	1150	314	1	1105
1	1151	3	3	1616
1	1152	577	2	2193
1	1153	730	2	1512
1	1154	26	3	1023
1	1155	605	3	1161
1	1156	1285	2	1248
1	1157	196	3	1967
1	1158	881	2	1567
1	1159	700	3	1994
1	1160	1379	3	2630
1	1161	1324	2	3833
1	1162	48	3	4159
1	1163	768	3	1897
1	1164	1020	2	1344
1	1165	387	2	4344
1	1166	229	3	3001
1	1167	95	3	2735
1	1168	162	3	1369
1	1169	585	3	2320
1	1170	86	3	1167
1	1171	556	3	1313
1	1172	590	3	2184
1	1173	452	4	2207
1	1174	971	2	1191
1	1175	964	2	6561
1	1176	341	1	1112
1	1177	893	1	1809
1	1178	1084	3	3312
1	1179	1372	3	1207
1	1180	391	2	1112
1	1181	209	2	3344
1	1182	318	2	1520
1	1183	1368	2	1383
1	1184	520	2	1666
1	1185	333	3	1079
1	1186	1238	3	1289
1	1187	184	3	1367
1	1188	1077	3	1369
1	1189	29	4	1503
1	1190	6	3	3857
1	1191	41	2	3455
1	1192	918	3	1688
1	1193	110	3	1809
1	1194	684	3	1639
1	1195	670	3	2159
1	1196	1019	3	5138
1	1197	10	2	1584
1	1198	693	3	2879
1	1199	903	3	1241
1	1200	219	2	1735
1	1201	477	3	1256
1	1202	891	2	1518
1	1203	1043	2	2090
1	1204	81	3	2144
1	1205	96	2	1486
1	1206	1367	3	3122
1	1207	644	2	1151
1	1208	426	3	3512
1	1209	419	2	985
1	1210	1140	3	1296
1	1211	441	3	3143
1	1212	742	3	1656
1	1213	481	2	2280
1	1214	131	3	1144
1	1215	1395	3	1937
1	1216	504	3	1232
1	1217	32	2	2110
1	1218	946	2	1282
1	1219	495	3	2111
1	1220	675	2	1641
1	1221	659	2	1791
1	1222	821	2	2585
1	1223	985	3	3360
1	1224	544	2	3104
1	1225	1061	3	2448
1	1226	967	2	2047
1	1227	1234	2	3057
1	1228	474	2	1391
1	1229	1109	3	5048
1	1230	1317	3	1168
1	1231	1334	2	1937
1	1232	851	3	1351
1	1233	435	3	1952
1	1234	124	3	1553
1	1235	1057	3	967
1	1236	151	4	1297
1	1237	153	3	6095
1	1238	511	3	1905
1	1239	958	2	5200
1	1240	476	3	1255
1	1241	1328	2	2904
1	1242	243	2	928
1	1243	976	3	1240
1	1244	569	3	2849
1	1245	1394	3	1518
1	1246	1357	4	2881
1	1247	1193	3	2993
1	1248	54	3	982
1	1249	311	2	2001
1	1250	984	2	4184
1	1251	655	2	13528
1	1252	316	1	1544
1	1253	1366	2	5169
1	1254	731	2	1031
1	1255	90	3	1089
1	1256	420	4	1520
1	1257	728	3	1415
1	1258	1111	2	1001
1	1259	1005	2	1439
1	1260	431	3	1584
1	1261	1356	3	1424
1	1262	432	2	992
1	1263	465	2	2808
1	1264	895	3	1112
1	1265	370	3	1072
1	1266	1344	2	992
1	1267	1129	2	2385
1	1268	1206	3	847
1	1269	59	3	2136
1	1270	89	2	2095
1	1271	877	2	1089
1	1272	516	4	4856
1	1273	1062	1	1816
1	1274	1042	3	1456
1	1275	404	3	1096
1	1276	778	2	1552
1	1277	1248	2	2808
1	1278	302	3	912
1	1279	631	3	6320
1	1280	94	2	1047
1	1281	793	3	1105
1	1282	922	2	1185
1	1283	310	2	1503
1	1284	823	2	3081
1	1285	1131	3	1351
1	1286	459	3	5689
1	1287	84	3	911
1	1288	1301	2	1023
1	1289	1118	3	2017
1	1290	304	2	1321
1	1291	761	3	1631
1	1292	1031	2	1248
1	1293	9	3	1176
1	1294	306	3	3001
1	1295	907	3	1040
1	1296	183	2	2056
1	1297	442	3	2559
1	1298	241	3	1448
1	1299	23	3	2584
1	1300	361	2	2391
1	1301	1329	2	2185
1	1302	85	2	1855
1	1303	855	2	1704
1	1304	1050	2	1288
1	1305	1037	3	1048
1	1306	221	3	1753
1	1307	969	3	1663
1	1308	882	2	1536
1	1309	634	4	2024
1	1310	805	3	2735
1	1311	114	2	1224
1	1312	744	3	3265
1	1313	469	2	1288
1	1314	827	2	23743
1	1315	1142	2	4914
1	1316	296	2	6664
1	1317	247	2	999
1	1318	578	2	2720
1	1319	429	2	2201
1	1320	873	3	1320
1	1321	21	3	1634
1	1322	1381	2	3413
1	1323	375	3	1081
1	1324	149	3	895
1	1325	811	3	1624
1	1326	1322	3	1337
1	1327	1200	3	1447
1	1328	246	3	1223
1	1329	57	2	2026
1	1330	274	3	3192
1	1331	453	2	2494
1	1332	291	3	7186
1	1333	727	3	1367
1	1334	648	4	3704
1	1335	181	3	6456
1	1336	326	3	4321
1	1337	385	4	1439
1	1338	1191	2	1648
1	1339	242	3	2588
1	1340	407	2	2236
1	1341	930	2	3040
1	1342	548	3	1009
1	1343	540	2	4687
1	1344	1107	3	2320
1	1345	301	3	5112
1	1346	1231	2	1689
1	1347	1095	2	2447
1	1348	1099	3	1528
1	1349	249	3	1113
1	1350	570	3	1831
1	1351	30	3	1504
1	1352	433	2	1649
1	1353	831	3	1344
1	1354	869	3	1895
1	1355	592	3	1008
1	1356	105	3	2736
1	1357	562	3	2448
1	1358	503	3	1625
1	1359	449	1	1568
1	1360	122	3	4599
1	1361	1373	3	1408
1	1362	785	2	6657
1	1363	573	2	1936
1	1364	553	2	3472
1	1365	371	3	2391
1	1366	989	2	2049
1	1367	765	3	2240
1	1368	791	3	1479
1	1369	1176	3	1216
1	1370	817	2	2481
1	1371	232	1	1272
1	1372	1082	3	28464
1	1373	164	2	4848
1	1374	1	2	3151
1	1375	561	3	3720
1	1376	1263	2	3223
1	1377	797	3	1354
1	1378	1139	3	1415
1	1379	265	2	2201
1	1380	161	3	4959
1	1381	277	3	1793
1	1382	397	2	1552
1	1383	689	4	1759
1	1384	11	3	8529
1	1385	13	4	1752
1	1386	956	2	1175
1	1387	1297	2	1481
1	1388	1110	3	5831
1	1389	34	2	5808
1	1390	1340	2	4625
1	1391	822	2	11472
1	1392	618	3	1751
1	1393	1345	3	1881
1	1394	67	3	1640
1	1395	919	2	1127
1	1396	588	3	1569
1	1397	72	3	1647
1	1398	1349	2	3353
1	1399	1008	2	2623
1	1400	1375	3	1544
2	1	475	2	6026
2	2	760	3	4346
2	3	1252	1	1043
2	4	30	3	7011
2	5	487	1	1208
2	6	256	4	1096
2	7	1037	2	1124
2	8	57	3	1474
2	9	29	3	1017
2	10	659	2	1606
2	11	116	4	1108
2	12	365	3	1339
2	13	625	2	880
2	14	847	3	997
2	15	125	3	3379
2	16	1209	1	1553
2	17	314	2	1440
2	18	212	2	1112
2	19	510	1	1200
2	20	1295	2	1487
2	21	182	3	1243
2	22	309	3	1166
2	23	684	3	1592
2	24	122	3	1455
2	25	411	4	902
2	26	297	3	1004
2	27	1279	2	1289
2	28	1379	2	1222
2	29	982	3	705
2	30	387	1	897
2	31	942	4	1743
2	32	711	4	1291
2	33	591	3	1872
2	34	1197	4	1636
2	35	445	3	1363
2	36	900	3	915
2	37	1345	3	2609
2	38	579	3	927
2	39	367	4	967
2	40	304	3	1646
2	41	1303	4	992
2	42	1392	2	3236
2	43	427	3	1265
2	44	140	3	1380
2	45	23	3	1123
2	46	938	2	915
2	47	350	2	879
2	48	1352	3	1503
2	49	639	2	807
2	50	744	1	915
2	51	793	1	778
2	52	329	3	1060
2	53	899	1	1097
2	54	257	3	2370
2	55	408	3	960
2	56	743	4	879
2	57	366	4	1028
2	58	673	4	1914
2	59	222	3	958
2	60	1084	4	979
2	61	1178	2	973
2	62	58	3	1199
2	63	787	2	908
2	64	1122	2	932
2	65	236	2	1150
2	66	1129	1	1684
2	67	1304	4	820
2	68	872	3	1846
2	69	443	3	2230
2	70	481	2	1186
2	71	560	3	1121
2	72	550	2	1436
2	73	388	4	1234
2	74	553	3	976
2	75	621	3	1001
2	76	967	2	1594
2	77	893	3	822
2	78	143	2	2664
2	79	676	3	1056
2	80	277	2	1796
2	81	767	2	948
2	82	381	1	1146
2	83	945	3	2039
2	84	158	2	3752
2	85	264	3	1348
2	86	624	3	1750
2	87	700	3	1220
2	88	978	2	1057
2	89	618	2	887
2	90	710	3	1073
2	91	887	3	1537
2	92	1272	3	2427
2	93	134	3	1468
2	94	432	4	1187
2	95	64	4	1913
2	96	1294	2	1507
2	97	952	4	1170
2	98	516	3	2245
2	99	705	3	1951
2	100	1175	3	1640
2	101	693	2	3047
2	102	1165	3	859
2	103	1050	2	837
2	104	1142	3	1008
2	105	1327	3	1085
2	106	503	3	1063
2	107	757	4	844
2	108	102	2	1413
2	109	239	2	1538
2	110	898	3	1084
2	111	1307	2	1071
2	112	66	3	1926
2	113	1225	4	1854
2	114	124	1	796
2	115	674	1	860
2	116	1095	4	1154
2	117	648	3	1998
2	118	289	2	1382
2	119	20	3	849
2	120	1015	4	1344
2	121	962	1	863
2	122	905	1	724
2	123	1080	4	1106
2	124	695	1	923
2	125	896	3	3620
2	126	1093	4	1097
2	127	131	3	1070
2	128	126	1	1000
2	129	237	3	1577
2	130	1393	4	2953
2	131	531	2	1110
2	132	1135	2	1320
2	133	1241	3	1143
2	134	310	3	4824
2	135	996	3	1275
2	136	964	3	1294
2	137	1310	2	1783
2	138	45	2	1680
2	139	1256	2	1066
2	140	138	2	825
2	141	1081	4	3436
2	142	311	4	1323
2	143	32	3	2304
2	144	120	3	3491
2	145	1100	3	4440
2	146	851	2	1332
2	147	944	3	1036
2	148	465	2	1110
2	149	422	1	1630
2	150	457	4	1984
2	151	525	3	1391
2	152	59	4	798
2	153	1072	2	2487
2	154	616	2	1200
2	155	1234	3	1250
2	156	1048	3	1258
2	157	500	3	729
2	158	1198	3	1144
2	159	1342	2	1142
2	160	441	2	2000
2	161	1228	2	1340
2	162	499	4	1196
2	163	384	3	1033
2	164	336	4	1665
2	165	569	3	1191
2	166	1044	3	1152
2	167	585	3	2191
2	168	632	3	1622
2	169	1230	3	1347
2	170	990	3	1140
2	171	1232	3	756
2	172	1180	4	1864
2	173	1333	4	1396
2	174	855	3	781
2	175	1291	4	1162
2	176	575	3	1162
2	177	496	3	1515
2	178	181	3	1048
2	179	109	2	1867
2	180	814	3	1258
2	181	430	3	1731
2	182	152	2	3228
2	183	294	2	1768
2	184	261	4	1475
2	185	570	3	6676
2	186	530	3	1254
2	187	306	3	1406
2	188	360	4	799
2	189	1220	4	953
2	190	498	4	1053
2	191	164	4	894
2	192	86	4	2934
2	193	976	4	3051
2	194	482	2	1331
2	195	319	3	970
2	196	1356	3	1343
2	197	167	3	908
2	198	943	2	8413
2	199	1328	3	1434
2	200	1076	3	858
2	201	493	1	1216
2	202	1086	3	2030
2	203	769	2	984
2	204	312	2	763
2	205	790	3	940
2	206	526	2	1420
2	207	1062	1	910
2	208	225	3	1143
2	209	1235	4	2237
2	210	675	2	1316
2	211	1145	3	1737
2	212	1075	3	1369
2	213	878	3	1014
2	214	60	4	892
2	215	773	2	1061
2	216	1223	3	914
2	217	349	3	1037
2	218	1320	2	1209
2	219	833	3	808
2	220	418	4	1032
2	221	28	3	966
2	222	629	3	937
2	223	804	3	1537
2	224	73	4	1993
2	225	779	2	1479
2	226	749	3	2121
2	227	415	4	1024
2	228	832	4	1190
2	229	1226	4	3212
2	230	592	2	3508
2	231	139	4	1649
2	232	356	4	3291
2	233	244	4	2269
2	234	961	3	1677
2	235	719	3	1712
2	236	321	3	2221
2	237	383	2	1101
2	238	768	1	813
2	239	1340	2	726
2	240	688	3	2148
2	241	1249	2	833
2	242	1371	3	1020
2	243	1025	3	1257
2	244	965	2	1168
2	245	727	3	1623
2	246	858	2	908
2	247	759	2	1368
2	248	834	2	4675
2	249	600	3	1968
2	250	267	1	852
2	251	372	2	1893
2	252	423	2	1170
2	253	1236	2	1137
2	254	38	3	960
2	255	224	3	936
2	256	1097	4	633
2	257	1237	2	1056
2	258	750	3	1711
2	259	555	4	784
2	260	344	3	917
2	261	969	4	812
2	262	33	4	1080
2	263	450	3	1048
2	264	63	2	1079
2	265	599	2	847
2	266	464	3	1178
2	267	111	3	1591
2	268	1372	2	1074
2	269	2	2	926
2	270	444	3	1104
2	271	413	3	1480
2	272	22	3	3023
2	273	1085	3	2712
2	274	402	4	972
2	275	145	3	1193
2	276	929	3	2953
2	277	470	4	1704
2	278	368	3	974
2	279	1354	3	982
2	280	262	2	3658
2	281	19	1	3558
2	282	1107	3	764
2	283	201	2	956
2	284	95	4	800
2	285	396	3	831
2	286	527	4	1106
2	287	146	4	753
2	288	1011	3	794
2	289	453	3	1243
2	290	518	3	897
2	291	1051	3	2203
2	292	993	4	2970
2	293	347	3	1106
2	294	1087	2	2339
2	295	1159	3	1685
2	296	825	1	1054
2	297	151	4	2535
2	298	17	4	961
2	299	115	4	670
2	300	1052	4	1266
2	301	1313	4	2895
2	302	1139	3	733
2	303	362	3	703
2	304	186	3	1036
2	305	981	4	1105
2	306	412	3	1039
2	307	772	4	892
2	308	882	3	760
2	309	1141	2	1199
2	310	925	3	2390
2	311	300	4	514
2	312	1191	4	862
2	313	689	3	1094
2	314	956	2	1148
2	315	879	3	1170
2	316	820	2	1635
2	317	686	4	4307
2	318	154	4	904
2	319	11	1	1342
2	320	199	3	1800
2	321	661	4	707
2	322	279	4	791
2	323	391	4	613
2	324	782	3	1058
2	325	4	4	1055
2	326	647	4	1323
2	327	80	3	2576
2	328	1036	3	930
2	329	180	4	951
2	330	1006	4	657
2	331	543	3	1259
2	332	419	3	1362
2	333	1277	4	11381
2	334	910	4	2257
2	335	589	4	900
2	336	398	4	727
2	337	784	4	1623
2	338	50	3	1286
2	339	1005	3	1582
2	340	551	4	682
2	341	973	2	1826
2	342	386	3	1276
2	343	448	3	2094
2	344	914	2	857
2	345	683	3	1183
2	346	3	3	820
2	347	627	3	727
2	348	1360	3	907
2	349	1205	4	841
2	350	1151	3	909
2	351	1038	2	927
2	352	1274	3	823
2	353	380	2	1439
2	354	980	4	947
2	355	494	3	684
2	356	645	3	1024
2	357	1111	2	846
2	358	508	3	740
2	359	162	4	1009
2	360	1146	2	1290
2	361	313	3	981
2	362	995	1	1286
2	363	1395	2	977
2	364	724	4	1059
2	365	1300	2	1160
2	366	755	2	944
2	367	433	1	1333
2	368	1189	3	1726
2	369	708	1	1484
2	370	546	4	1153
2	371	483	2	1240
2	372	287	3	1163
2	373	7	4	824
2	374	1353	2	907
2	375	694	1	767
2	376	885	2	1070
2	377	97	2	1272
2	378	826	2	875
2	379	715	1	1628
2	380	922	1	1031
2	381	259	3	1986
2	382	937	3	1021
2	383	382	4	1609
2	384	1199	1	1087
2	385	778	2	770
2	386	248	1	747
2	387	657	1	1342
2	388	1184	3	2140
2	389	9	3	1423
2	390	105	2	2626
2	391	557	2	1615
2	392	317	1	547
2	393	1021	1	690
2	394	1132	2	613
2	395	1188	3	724
2	396	1110	1	890
2	397	1247	2	1624
2	398	36	3	1241
2	399	492	3	1080
2	400	1254	3	930
2	401	861	3	1268
2	402	335	3	773
2	403	460	2	1056
2	404	574	2	1060
2	405	1034	2	717
2	406	417	1	843
2	407	484	3	1115
2	408	157	2	816
2	409	852	2	1089
2	410	255	3	647
2	411	389	4	1336
2	412	1074	3	2873
2	413	1366	2	1119
2	414	567	3	3671
2	415	1004	2	814
2	416	837	3	927
2	417	318	2	569
2	418	70	1	1037
2	419	405	3	890
2	420	1124	3	1198
2	421	269	3	1292
2	422	862	4	1293
2	423	1292	1	1470
2	424	245	2	864
2	425	1329	3	929
2	426	1305	1	994
2	427	817	3	1163
2	428	340	3	1716
2	429	541	2	1057
2	430	1008	2	3670
2	431	1001	2	2544
2	432	685	2	4469
2	433	77	1	1801
2	434	838	1	1110
2	435	739	3	1916
2	436	1204	2	1286
2	437	987	1	2498
2	438	856	4	1197
2	439	966	3	972
2	440	894	2	1114
2	441	320	3	954
2	442	1152	2	900
2	443	1060	2	800
2	444	1396	2	843
2	445	1121	2	4115
2	446	205	1	1800
2	447	251	4	1430
2	448	506	1	927
2	449	612	1	780
2	450	15	3	1153
2	451	1218	2	2179
2	452	1382	3	5738
2	453	932	4	801
2	454	1318	1	1472
2	455	207	1	1693
2	456	194	1	1361
2	457	142	1	2389
2	458	924	1	1134
2	459	233	2	2723
2	460	497	3	1175
2	461	935	4	822
2	462	203	3	800
2	463	35	3	733
2	464	762	3	1190
2	465	459	4	1110
2	466	766	3	743
2	467	598	1	783
2	468	1350	3	1049
2	469	1384	2	850
2	470	1288	2	605
2	471	1136	3	1123
2	472	1321	4	994
2	473	1233	2	1563
2	474	397	2	993
2	475	607	2	1513
2	476	552	2	1375
2	477	1335	2	759
2	478	376	3	1168
2	479	992	1	1886
2	480	53	3	1255
2	481	268	2	1857
2	482	1161	1	887
2	483	573	1	804
2	484	505	2	1549
2	485	71	1	1690
2	486	16	4	1432
2	487	865	3	738
2	488	1389	3	1320
2	489	713	3	925
2	490	1390	3	1715
2	491	361	2	1206
2	492	931	3	768
2	493	49	3	840
2	494	373	2	776
2	495	1246	3	1304
2	496	280	2	869
2	497	339	2	1070
2	498	435	3	767
2	499	172	3	1054
2	500	796	2	863
2	501	1380	3	6184
2	502	223	3	7987
2	503	343	3	584
2	504	121	3	606
2	505	249	3	812
2	506	1268	3	641
2	507	1261	2	660
2	508	742	3	596
2	509	1217	3	630
2	510	1185	4	527
2	511	652	3	680
2	512	165	3	937
2	513	395	3	923
2	514	1077	4	787
2	515	1070	2	1195
2	516	588	2	654
2	517	226	1	854
2	518	1388	3	1269
2	519	461	2	974
2	520	1172	2	877
2	521	728	1	906
2	522	147	2	1260
2	523	210	2	1476
2	524	741	3	2724
2	525	1286	2	2536
2	526	634	3	1990
2	527	892	3	2244
2	528	635	4	1083
2	529	334	2	1523
2	530	622	3	3300
2	531	110	2	6387
2	532	806	1	1059
2	533	948	2	768
2	534	1255	1	956
2	535	601	1	803
2	536	228	1	787
2	537	200	3	794
2	538	556	4	576
2	539	429	3	486
2	540	1373	2	408
2	541	1067	3	1776
2	542	400	2	1225
2	543	888	2	695
2	544	229	1	1029
2	545	399	2	926
2	546	748	2	1324
2	547	849	2	995
2	548	1357	3	879
2	549	480	4	1048
2	550	511	4	860
2	551	1265	3	896
2	552	1282	3	1252
2	553	751	2	808
2	554	316	3	1664
2	555	82	1	792
2	556	1091	4	980
2	557	455	2	1276
2	558	721	2	900
2	559	488	2	1207
2	560	610	3	861
2	561	785	4	1095
2	562	1035	1	834
2	563	679	2	1007
2	564	133	3	1859
2	565	1125	3	838
2	566	1092	3	719
2	567	823	1	831
2	568	299	3	879
2	569	1043	2	2070
2	570	859	3	3137
2	571	174	2	1209
2	572	873	2	1034
2	573	153	2	1560
2	574	1158	1	77
2	575	1126	2	1646
2	576	301	3	723
2	577	549	4	756
2	578	439	3	1890
2	579	959	2	3387
2	580	495	1	1783
2	581	25	3	1594
2	582	1168	1	1290
2	583	1266	3	1054
2	584	44	3	1726
2	585	462	4	511
2	586	1020	3	803
2	587	196	3	1149
2	588	428	2	738
2	589	1041	3	1322
2	590	1140	4	909
2	591	1376	3	905
2	592	1002	3	1654
2	593	393	3	1355
2	594	994	4	434
2	595	1196	3	757
2	596	281	4	517
2	597	1160	4	640
2	598	958	4	620
2	599	1094	4	1467
2	600	502	4	632
2	601	477	4	1389
2	602	1174	3	1225
2	603	807	4	834
2	604	712	2	1197
2	605	37	1	771
2	606	1284	1	749
2	607	173	1	2267
2	608	547	3	954
2	609	1298	4	1782
2	610	1253	3	1184
2	611	466	3	1328
2	612	489	3	1076
2	613	558	3	882
2	614	208	3	1002
2	615	678	3	1456
2	616	241	4	825
2	617	191	4	1320
2	618	528	3	1305
2	619	354	3	1379
2	620	1	3	1132
2	621	819	3	855
2	622	578	3	1384
2	623	950	3	689
2	624	1211	2	2083
2	625	315	3	1063
2	626	916	3	3437
2	627	471	3	2858
2	628	1045	2	1222
2	629	846	2	1009
2	630	278	3	1411
2	631	1088	2	1143
2	632	369	2	907
2	633	286	3	3291
2	634	836	3	3053
2	635	371	4	1070
2	636	284	4	1126
2	637	776	4	1024
2	638	198	4	1296
2	639	1023	3	981
2	640	890	3	903
2	641	1193	4	666
2	642	928	4	780
2	643	665	1	840
2	644	325	3	933
2	645	1012	1	748
2	646	337	3	1569
2	647	1365	3	957
2	648	81	4	747
2	649	521	4	773
2	650	1073	1	1013
2	651	915	2	1517
2	652	401	3	1085
2	653	667	4	2436
2	654	1058	2	1250
2	655	581	3	1676
2	656	548	2	1131
2	657	764	4	925
2	658	726	3	2172
2	659	171	4	1148
2	660	535	3	2130
2	661	474	1	764
2	662	989	2	943
2	663	327	1	852
2	664	379	2	1494
2	665	1309	3	971
2	666	593	4	1044
2	667	822	3	1183
2	668	135	2	1870
2	669	40	2	3186
2	670	375	2	899
2	671	160	3	1677
2	672	538	1	1073
2	673	1113	3	781
2	674	467	1	886
2	675	21	4	1045
2	676	1391	4	999
2	677	1316	4	969
2	678	451	4	1043
2	679	753	4	717
2	680	1285	1	1033
2	681	1314	4	1109
2	682	324	3	994
2	683	169	2	1224
2	684	1337	1	1305
2	685	1056	4	1199
2	686	75	3	1057
2	687	456	3	827
2	688	1325	4	827
2	689	123	4	1109
2	690	101	3	1386
2	691	698	4	742
2	692	99	3	890
2	693	1364	3	2106
2	694	876	4	2887
2	695	148	3	1195
2	696	923	3	1378
2	697	42	3	794
2	698	1276	4	1763
2	699	149	4	627
2	700	190	3	1146
2	701	863	3	1992
2	702	414	2	953
2	703	580	2	1073
2	704	5	2	1056
2	705	1082	3	1211
2	706	252	2	577
2	707	509	3	1136
2	708	1128	2	647
2	709	1369	3	634
2	710	668	4	703
2	711	545	3	897
2	712	351	1	795
2	713	155	3	1022
2	714	1186	3	796
2	715	951	2	1329
2	716	1054	4	684
2	717	112	4	790
2	718	1147	3	707
2	719	799	3	1288
2	720	906	4	768
2	721	797	4	807
2	722	839	3	800
2	723	213	3	1733
2	724	732	3	1070
2	725	43	3	959
2	726	562	3	615
2	727	701	2	907
2	728	359	2	2517
2	729	953	3	869
2	730	108	4	1042
2	731	341	2	805
2	732	563	3	796
2	733	1215	3	1010
2	734	540	1	2233
2	735	583	1	1001
2	736	51	2	1051
2	737	449	3	1009
2	738	1028	2	1201
2	739	824	3	2373
2	740	1270	3	3229
2	741	1024	2	886
2	742	1212	3	1103
2	743	88	3	1129
2	744	831	3	3614
2	745	168	1	943
2	746	1137	2	920
2	747	869	4	1753
2	748	1319	3	888
2	749	524	3	1613
2	750	912	3	2176
2	751	1019	3	701
2	752	1219	4	665
2	753	628	2	944
2	754	979	4	780
2	755	818	3	1024
2	756	1114	3	916
2	757	504	3	987
2	758	1069	1	908
2	759	85	2	757
2	760	911	1	695
2	761	584	1	834
2	762	1315	3	1372
2	763	1375	4	794
2	764	491	3	771
2	765	920	3	872
2	766	946	4	976
2	767	1030	3	918
2	768	536	4	897
2	769	458	2	920
2	770	771	2	857
2	771	660	4	982
2	772	1127	1	691
2	773	761	4	1452
2	774	1257	3	657
2	775	1133	2	1160
2	776	243	3	957
2	777	170	2	2100
2	778	61	3	913
2	779	1399	3	855
2	780	1089	3	1729
2	781	1378	1	844
2	782	682	2	939
2	783	469	4	1113
2	784	1022	3	904
2	785	1238	3	1393
2	786	76	3	787
2	787	746	3	1530
2	788	513	3	3473
2	789	909	3	1073
2	790	1367	3	1117
2	791	303	3	1167
2	792	1003	2	959
2	793	478	3	791
2	794	829	2	2484
2	795	46	1	772
2	796	1213	3	821
2	797	595	2	989
2	798	431	3	1867
2	799	1341	2	703
2	800	1071	1	770
2	801	290	3	2174
2	802	214	4	1849
2	803	247	2	1042
2	804	802	3	920
2	805	1306	4	605
2	806	258	4	547
2	807	703	4	770
2	808	903	3	587
2	809	486	2	1008
2	810	48	3	821
2	811	114	3	1007
2	812	613	3	774
2	813	119	3	732
2	814	798	2	913
2	815	1032	3	904
2	816	1194	4	994
2	817	532	2	1693
2	818	12	2	2138
2	819	1248	2	768
2	820	571	1	835
2	821	884	3	746
2	822	330	3	1293
2	823	1170	3	1801
2	824	904	4	809
2	825	217	3	1179
2	826	844	4	951
2	827	328	2	1295
2	828	514	2	738
2	829	1394	3	1116
2	830	1245	2	970
2	831	1308	3	1750
2	832	615	3	2710
2	833	440	3	750
2	834	254	3	726
2	835	955	2	774
2	836	786	3	648
2	837	1173	3	743
2	838	1387	2	799
2	839	908	1	795
2	840	1208	3	1147
2	841	975	4	935
2	842	864	3	781
2	843	1299	3	1142
2	844	646	2	810
2	845	1059	3	767
2	846	1130	2	753
2	847	1123	3	771
2	848	1351	4	898
2	849	841	3	1270
2	850	1163	4	1457
2	851	677	2	871
2	852	1251	3	636
2	853	669	3	1163
2	854	283	3	744
2	855	1101	2	663
2	856	658	1	883
2	857	1105	3	888
2	858	619	2	1272
2	859	1240	3	691
2	860	927	3	836
2	861	104	2	841
2	862	1348	4	779
2	863	161	2	767
2	864	690	4	944
2	865	812	3	698
2	866	1271	3	807
2	867	103	4	1096
2	868	1131	3	809
2	869	1278	4	1445
2	870	1269	3	914
2	871	41	3	901
2	872	697	4	939
2	873	883	3	976
2	874	991	4	994
2	875	626	2	617
2	876	1250	4	568
2	877	1263	2	829
2	878	1182	3	694
2	879	176	3	684
2	880	662	4	798
2	881	218	4	1073
2	882	880	2	944
2	883	926	2	942
2	884	565	4	1060
2	885	780	2	737
2	886	1339	4	917
2	887	638	3	1145
2	888	332	2	1086
2	889	835	2	636
2	890	934	3	1482
2	891	1150	2	1050
2	892	891	3	1145
2	893	65	4	936
2	894	295	3	2091
2	895	370	3	2097
2	896	1169	1	1261
2	897	997	3	2692
2	898	92	3	934
2	899	307	2	1053
2	900	1363	3	1075
2	901	363	4	975
2	902	272	3	886
2	903	783	2	4924
2	904	52	2	1162
2	905	651	3	868
2	906	235	2	844
2	907	605	4	689
2	908	788	3	710
2	909	631	3	881
2	910	1293	3	715
2	911	67	3	1022
2	912	117	4	701
2	913	709	2	893
2	914	974	3	725
2	915	1370	4	613
2	916	1143	3	1353
2	917	1203	4	977
2	918	1118	2	810
2	919	1297	3	877
2	920	1385	4	940
2	921	322	3	974
2	922	738	4	926
2	923	1287	3	756
2	924	1231	2	2587
2	925	1224	2	2729
2	926	452	3	1590
2	927	649	2	952
2	928	1275	4	982
2	929	539	4	987
2	930	79	3	732
2	931	219	3	845
2	932	848	3	1373
2	933	1289	4	1098
2	934	633	4	796
2	935	850	3	1073
2	936	939	4	1747
2	937	348	4	973
2	938	472	2	1952
2	939	604	1	875
2	940	641	2	992
2	941	596	2	894
2	942	800	2	798
2	943	1049	3	905
2	944	195	2	796
2	945	860	2	846
2	946	1009	1	1042
2	947	877	2	3534
2	948	166	3	1002
2	949	221	2	924
2	950	1157	1	908
2	951	1177	2	975
2	952	1117	2	860
2	953	394	3	2246
2	954	572	3	923
2	955	8	4	734
2	956	1108	4	1173
2	957	963	2	904
2	958	231	2	2721
2	959	409	1	1135
2	960	1068	2	1893
2	961	998	1	813
2	962	1264	3	807
2	963	519	2	864
2	964	821	1	880
2	965	185	2	1200
2	966	947	1	653
2	967	544	3	1419
2	968	206	2	904
2	969	215	3	1183
2	970	1273	3	848
2	971	90	4	1566
2	972	250	3	2589
2	973	490	3	975
2	974	936	4	1359
2	975	1358	3	3383
2	976	577	3	865
2	977	69	4	951
2	978	597	4	848
2	979	175	4	800
2	980	476	4	920
2	981	725	4	1021
2	982	1090	2	1634
2	983	438	3	962
2	984	919	4	2478
2	985	1361	4	991
2	986	1154	3	536
2	987	1323	4	843
2	988	747	4	599
2	989	1190	4	569
2	990	144	3	896
2	991	1260	2	1353
2	992	392	2	832
2	993	407	3	685
2	994	609	4	516
2	995	954	4	767
2	996	1244	2	957
2	997	1109	2	699
2	998	1104	1	594
2	999	424	3	949
2	1000	358	3	707
2	1001	827	4	1064
2	1002	34	4	937
2	1003	594	4	1593
2	1004	159	3	732
2	1005	326	3	791
2	1006	1153	3	891
2	1007	1018	3	842
2	1008	47	3	963
2	1009	568	3	938
2	1010	137	4	570
2	1011	426	2	1096
2	1012	285	4	757
2	1013	921	3	1137
2	1014	774	3	1704
2	1015	611	3	748
2	1016	1324	3	870
2	1017	868	2	938
2	1018	999	3	780
2	1019	1259	3	885
2	1020	156	4	2852
2	1021	1377	4	512
2	1022	654	4	657
2	1023	602	3	819
2	1024	1296	4	458
2	1025	106	4	776
2	1026	1000	1	870
2	1027	209	2	771
2	1028	1280	1	757
2	1029	1033	3	1438
2	1030	1065	2	906
2	1031	522	1	982
2	1032	1383	4	1558
2	1033	845	3	1418
2	1034	1164	4	1024
2	1035	756	3	884
2	1036	655	4	1178
2	1037	1026	2	1386
2	1038	446	1	824
2	1039	1302	2	941
2	1040	202	3	1293
2	1041	1057	3	3747
2	1042	901	4	1257
2	1043	1181	3	572
2	1044	867	2	788
2	1045	442	4	904
2	1046	971	1	688
2	1047	74	3	793
2	1048	614	3	1017
2	1049	220	2	661
2	1050	410	2	860
2	1051	1055	3	811
2	1052	1116	4	678
2	1053	840	4	807
2	1054	707	4	740
2	1055	842	1	964
2	1056	815	2	1085
2	1057	763	3	1674
2	1058	1119	4	3229
2	1059	1201	3	891
2	1060	1007	2	1180
2	1061	789	3	883
2	1062	917	2	983
2	1063	777	1	961
2	1064	54	3	831
2	1065	78	2	945
2	1066	416	3	935
2	1067	854	4	1824
2	1068	805	4	2649
2	1069	242	3	1116
2	1070	874	3	1134
2	1071	1098	3	3061
2	1072	1222	3	1136
2	1073	296	2	874
2	1074	586	4	1020
2	1075	1346	3	738
2	1076	653	1	927
2	1077	141	3	711
2	1078	1311	2	1320
2	1079	266	1	920
2	1080	617	4	1167
2	1081	128	1	1228
2	1082	941	3	2560
2	1083	1017	4	1171
2	1084	977	1	682
2	1085	177	3	723
2	1086	985	3	832
2	1087	1344	1	994
2	1088	263	1	1205
2	1089	1031	2	975
2	1090	150	1	787
2	1091	274	3	999
2	1092	696	2	1363
2	1093	1183	3	916
2	1094	752	3	991
2	1095	1332	3	2222
2	1096	83	4	858
2	1097	404	4	624
2	1098	1343	2	1113
2	1099	554	3	1146
2	1100	1330	3	2082
2	1101	706	2	1808
2	1102	323	3	716
2	1103	1227	4	3017
2	1104	420	2	826
2	1105	718	4	627
2	1106	737	3	654
2	1107	189	4	759
2	1108	1242	1	778
2	1109	14	2	770
2	1110	89	2	1125
2	1111	463	3	918
2	1112	501	3	1040
2	1113	886	3	1231
2	1114	830	4	1258
2	1115	960	4	617
2	1116	582	3	787
2	1117	1207	2	1073
2	1118	857	3	974
2	1119	735	3	752
2	1120	1078	2	1064
2	1121	918	1	1196
2	1122	681	2	981
2	1123	733	1	923
2	1124	913	2	907
2	1125	1039	2	811
2	1126	183	1	1575
2	1127	353	3	670
2	1128	775	2	996
2	1129	1115	3	1194
2	1130	770	1	1026
2	1131	246	3	871
2	1132	670	2	1546
2	1133	881	1	824
2	1134	808	2	910
2	1135	1334	1	930
2	1136	390	3	893
2	1137	1368	2	2003
2	1138	94	3	978
2	1139	1206	1	1345
2	1140	590	1	1062
2	1141	1155	4	995
2	1142	338	2	1263
2	1143	542	2	1062
2	1144	1096	3	788
2	1145	794	4	606
2	1146	984	3	1169
2	1147	731	4	551
2	1148	1374	1	1217
2	1149	650	3	2152
2	1150	187	3	1651
2	1151	298	4	1620
2	1152	211	3	904
2	1153	1322	3	640
2	1154	6	3	744
2	1155	663	3	630
2	1156	1283	4	1266
2	1157	529	4	836
2	1158	1064	3	729
2	1159	18	3	1107
2	1160	803	3	845
2	1161	1326	4	996
2	1162	188	3	3589
2	1163	666	2	1363
2	1164	84	4	903
2	1165	902	3	635
2	1166	813	3	788
2	1167	988	3	718
2	1168	620	3	683
2	1169	722	3	754
2	1170	1014	3	730
2	1171	96	3	849
2	1172	129	3	753
2	1173	385	4	1301
2	1174	292	4	916
2	1175	736	4	892
2	1176	1312	4	1271
2	1177	968	3	1726
2	1178	1210	2	1349
2	1179	1061	3	722
2	1180	1331	2	793
2	1181	479	3	814
2	1182	357	4	970
2	1183	566	4	1896
2	1184	1386	4	1184
2	1185	1400	3	887
2	1186	970	2	556
2	1187	421	1	1169
2	1188	282	3	645
2	1189	623	4	789
2	1190	949	2	1056
2	1191	331	2	875
2	1192	260	4	1199
2	1193	270	2	887
2	1194	1229	3	953
2	1195	1171	2	923
2	1196	1221	2	910
2	1197	1042	3	816
2	1198	342	2	1070
2	1199	587	3	2537
2	1200	512	2	904
2	1201	1016	3	974
2	1202	436	3	657
2	1203	843	3	899
2	1204	93	3	800
2	1205	437	3	602
2	1206	1046	3	1018
2	1207	333	4	801
2	1208	1083	3	777
2	1209	816	4	603
2	1210	39	3	943
2	1211	870	3	916
2	1212	608	2	530
2	1213	716	3	1115
2	1214	734	3	776
2	1215	178	4	787
2	1216	1148	1	1402
2	1217	537	3	1036
2	1218	10	2	785
2	1219	1103	2	1206
2	1220	98	3	878
2	1221	636	2	968
2	1222	473	2	1399
2	1223	1281	3	718
2	1224	192	3	932
2	1225	1040	4	1521
2	1226	1120	2	4631
2	1227	1347	2	756
2	1228	664	3	3243
2	1229	520	4	937
2	1230	765	3	1446
2	1231	425	2	1310
2	1232	1362	3	723
2	1233	62	3	794
2	1234	534	2	827
2	1235	1397	3	1176
2	1236	717	4	1337
2	1237	523	4	627
2	1238	216	4	637
2	1239	792	3	759
2	1240	184	2	984
2	1241	163	3	949
2	1242	643	1	760
2	1243	801	1	853
2	1244	24	1	869
2	1245	1138	1	641
2	1246	100	3	1077
2	1247	810	2	871
2	1248	671	2	580
2	1249	434	4	719
2	1250	603	3	568
2	1251	352	2	496
2	1252	364	3	1193
2	1253	346	2	1579
2	1254	232	4	791
2	1255	1162	3	593
2	1256	687	3	864
2	1257	795	3	917
2	1258	302	2	1677
2	1259	454	4	853
2	1260	374	3	919
2	1261	672	3	1260
2	1262	1195	4	883
2	1263	378	4	813
2	1264	55	4	594
2	1265	1112	3	477
2	1266	273	3	943
2	1267	933	2	620
2	1268	238	1	976
2	1269	1179	1	1027
2	1270	1166	1	983
2	1271	533	2	694
2	1272	1243	1	1000
2	1273	1066	3	714
2	1274	809	3	646
2	1275	1200	2	680
2	1276	1336	1	503
2	1277	355	1	610
2	1278	559	1	487
2	1279	227	1	507
2	1280	828	1	657
2	1281	791	1	690
2	1282	875	1	819
2	1283	897	1	567
2	1284	127	2	817
2	1285	305	2	633
2	1286	1216	2	637
2	1287	1301	2	1076
2	1288	871	1	726
2	1289	517	2	908
2	1290	240	1	1092
2	1291	1134	1	958
2	1292	377	3	1050
2	1293	27	4	1512
2	1294	118	1	783
2	1295	515	4	1005
2	1296	644	3	699
2	1297	1099	2	544
2	1298	940	4	470
2	1299	265	4	993
2	1300	866	3	553
2	1301	729	4	863
2	1302	1013	3	558
2	1303	1338	4	673
2	1304	276	2	1513
2	1305	72	3	994
2	1306	758	2	679
2	1307	740	3	2912
2	1308	702	3	1294
2	1309	656	3	991
2	1310	691	3	1163
2	1311	1106	3	1196
2	1312	345	4	791
2	1313	1349	3	709
2	1314	1317	4	818
2	1315	1239	3	860
2	1316	1047	4	920
2	1317	1144	3	766
2	1318	723	2	767
2	1319	197	4	643
2	1320	406	4	679
2	1321	1156	3	595
2	1322	699	1	693
2	1323	692	2	1052
2	1324	781	3	852
2	1325	637	4	885
2	1326	132	3	644
2	1327	275	3	2313
2	1328	204	3	1056
2	1329	907	2	1086
2	1330	1027	2	941
2	1331	730	1	1267
2	1332	972	3	784
2	1333	561	4	1156
2	1334	642	3	757
2	1335	564	4	982
2	1336	1187	4	658
2	1337	1258	3	269
2	1338	983	1	617
2	1339	895	3	877
2	1340	640	1	944
2	1341	630	2	944
2	1342	1202	3	810
2	1343	13	3	1070
2	1344	293	4	794
2	1345	234	4	845
2	1346	87	3	808
2	1347	1102	4	700
2	1348	1053	4	882
2	1349	1176	2	1114
2	1350	930	3	944
2	1351	720	1	960
2	1352	745	3	897
2	1353	1214	2	1132
2	1354	91	3	785
2	1355	957	2	823
2	1356	1063	1	993
2	1357	253	2	1076
2	1358	1029	2	751
2	1359	1381	3	1062
2	1360	1010	2	1187
2	1361	507	3	761
2	1362	576	1	990
2	1363	68	1	730
2	1364	271	2	706
2	1365	31	1	747
2	1366	113	1	1542
2	1367	811	3	771
2	1368	1192	2	817
2	1369	1262	4	962
2	1370	485	1	807
2	1371	1398	2	750
2	1372	26	3	974
2	1373	1079	4	1293
2	1374	1355	2	860
2	1375	1290	2	1384
2	1376	193	3	1272
2	1377	1267	4	780
2	1378	853	4	893
2	1379	714	2	890
2	1380	56	4	824
2	1381	130	3	706
2	1382	447	2	1380
2	1383	1359	3	640
2	1384	754	4	794
2	1385	107	1	884
2	1386	1149	3	896
2	1387	308	2	866
2	1388	403	3	1510
2	1389	291	2	824
2	1390	606	1	2349
2	1391	136	2	663
2	1392	704	1	1094
2	1393	468	2	858
2	1394	986	1	740
2	1395	889	4	649
2	1396	288	2	1113
2	1397	230	3	838
2	1398	179	2	893
2	1399	680	3	1036
2	1400	1167	1	1320
3	1	349	2	14880
3	2	630	2	2937
3	3	1305	2	3704
3	4	1241	1	7609
3	5	1017	1	1536
3	6	620	1	1383
3	7	106	1	2984
3	8	1335	1	1897
3	9	146	1	2840
3	10	1250	2	1984
3	11	475	1	4929
3	12	195	2	1936
3	13	604	3	2991
3	14	1016	3	3080
3	15	1130	3	4024
3	16	880	4	4289
3	17	7	3	3264
3	18	561	3	1095
3	19	1261	4	1113
3	20	194	3	2640
3	21	618	3	1400
3	22	732	3	1520
3	23	367	3	2088
3	24	830	4	1801
3	25	187	2	1328
3	26	45	3	1432
3	27	358	4	1248
3	28	91	3	2608
3	29	981	4	1328
3	30	1045	2	1272
3	31	307	4	1057
3	32	568	2	1519
3	33	809	3	1080
3	34	1142	2	2289
3	35	1293	3	3328
3	36	1388	2	2144
3	37	249	2	1256
3	38	409	3	1272
3	39	826	3	1896
3	40	1138	3	1753
3	41	647	4	944
3	42	1367	2	1168
3	43	285	3	824
3	44	944	4	1008
3	45	617	3	2584
3	46	1097	3	1081
3	47	982	4	1000
3	48	390	3	1257
3	49	960	4	1895
3	50	940	2	888
3	51	739	2	1120
3	52	264	3	1849
3	53	1070	2	1296
3	54	1328	3	1376
3	55	129	2	1416
3	56	759	3	1705
3	57	1355	2	3407
3	58	1136	2	1025
3	59	506	2	1783
3	60	715	2	1609
3	61	822	3	1144
3	62	698	3	792
3	63	185	4	1872
3	64	970	4	1080
3	65	1200	3	1288
3	66	1342	3	1960
3	67	583	3	1520
3	68	313	3	2216
3	69	1362	3	2569
3	70	107	4	1112
3	71	851	2	1248
3	72	218	2	1496
3	73	1145	2	2016
3	74	966	2	2016
3	75	399	3	3640
3	76	995	1	1625
3	77	878	2	1280
3	78	290	2	1360
3	79	1189	2	880
3	80	83	3	1488
3	81	804	2	1512
3	82	594	2	2840
3	83	938	2	1472
3	84	488	1	1208
3	85	942	3	2321
3	86	817	1	1440
3	87	650	1	1832
3	88	1193	2	2176
3	89	737	2	1384
3	90	338	3	1160
3	91	593	2	904
3	92	533	3	4208
3	93	984	3	1592
3	94	1332	3	1065
3	95	1084	3	1072
3	96	151	3	1104
3	97	1389	2	2704
3	98	1371	1	2944
3	99	709	2	3625
3	100	1192	3	7800
3	101	523	2	2337
3	102	653	3	1728
3	103	582	3	824
3	104	1394	3	2584
3	105	112	3	3280
3	106	99	2	1464
3	107	510	2	928
3	108	95	2	912
3	109	985	3	880
3	110	1284	2	1120
3	111	371	2	1136
3	112	414	2	872
3	113	1129	3	1089
3	114	464	4	1215
3	115	716	4	1032
3	116	890	3	2393
3	117	1398	1	1088
3	118	598	4	2360
3	119	584	1	2400
3	120	1110	1	1992
3	121	392	4	1656
3	122	1302	3	4537
3	123	657	2	1552
3	124	160	1	1040
3	125	1309	4	1224
3	126	1318	3	1000
3	127	889	2	3704
3	128	551	3	1256
3	129	487	2	1496
3	130	714	2	3865
3	131	324	1	864
3	132	632	2	2072
3	133	232	4	1184
3	134	860	4	888
3	135	27	4	920
3	136	560	3	2592
3	137	730	3	1688
3	138	1079	4	1281
3	139	171	3	1392
3	140	1000	2	1464
3	141	255	4	2000
3	142	58	3	1864
3	143	222	3	1449
3	144	419	3	3801
3	145	1051	2	2007
3	146	884	3	721
3	147	1329	3	1808
3	148	235	2	1512
3	149	1330	2	1032
3	150	343	3	776
3	151	549	4	720
3	152	581	2	2104
3	153	168	2	4344
3	154	1333	2	7337
3	155	444	2	1312
3	156	238	3	888
3	157	600	2	816
3	158	897	3	1232
3	159	436	2	7441
3	160	726	3	3720
3	161	3	2	1112
3	162	998	2	1224
3	163	900	3	841
3	164	750	3	1192
3	165	850	4	727
3	166	80	3	1153
3	167	103	2	1664
3	168	217	3	1840
3	169	21	4	1216
3	170	288	2	4384
3	171	1144	3	864
3	172	227	2	3856
3	173	298	3	1857
3	174	1233	3	2000
3	175	519	2	1248
3	176	339	3	1248
3	177	263	3	968
3	178	472	3	4416
3	179	956	3	2472
3	180	240	2	3705
3	181	859	3	1080
3	182	504	3	7928
3	183	778	3	1496
3	184	47	3	2889
3	185	428	4	1167
3	186	926	3	1057
3	187	913	3	2312
3	188	137	3	1880
3	189	692	2	1048
3	190	1168	2	1240
3	191	972	2	3144
3	192	1088	2	3865
3	193	703	1	896
3	194	1253	1	1024
3	195	1068	1	2336
3	196	1167	1	752
3	197	845	2	2457
3	198	75	3	1199
3	199	1076	3	3033
3	200	1249	1	1152
3	201	327	2	4987
3	202	927	3	1216
3	203	808	4	1696
3	204	36	4	1713
3	205	155	2	1360
3	206	310	4	1000
3	207	179	2	1376
3	208	1356	2	1032
3	209	847	2	2224
3	210	1378	1	976
3	211	380	2	2160
3	212	663	2	14193
3	213	871	3	880
3	214	760	2	1313
3	215	1242	3	6096
3	216	1023	4	1128
3	217	643	3	3440
3	218	1128	2	4305
3	219	711	3	16
3	220	413	2	1960
3	221	1278	1	848
3	222	42	3	992
3	223	1228	3	23233
3	224	1274	2	1129
3	225	540	2	1528
3	226	755	2	2992
3	227	31	3	2264
3	228	932	2	2440
3	229	1348	2	1312
3	230	1276	2	920
3	231	1246	3	2297
3	232	1050	2	3032
3	233	29	1	1015
3	234	478	1	1193
3	235	1300	2	3200
3	236	210	3	1449
3	237	460	2	3527
3	238	53	3	1152
3	239	1256	2	1057
3	240	911	3	1759
3	241	1301	4	1073
3	242	606	3	8049
3	243	608	3	5344
3	244	762	2	1703
3	245	1393	2	3513
3	246	706	1	1088
3	247	841	3	11561
3	248	541	2	5608
3	249	948	2	10969
3	250	291	3	1073
3	251	280	3	855
3	252	720	3	1392
3	253	223	2	1721
3	254	939	2	1776
3	255	260	4	920
3	256	1113	4	784
3	257	908	2	4032
3	258	292	3	6256
3	259	802	2	2537
3	260	384	2	1072
3	261	969	3	2016
3	262	1120	3	1184
3	263	1176	3	1448
3	264	177	3	1520
3	265	1166	3	1137
3	266	247	4	975
3	267	48	2	7137
3	268	652	4	1000
3	269	165	4	1000
3	270	718	4	752
3	271	1124	4	856
3	272	1245	3	3464
3	273	492	3	1640
3	274	1037	4	752
3	275	120	4	841
3	276	1203	3	1424
3	277	265	3	6552
3	278	278	3	1360
3	279	97	3	5865
3	280	1247	3	7072
3	281	1222	3	880
3	282	1033	4	664
3	283	125	4	1009
3	284	829	3	919
3	285	184	3	2713
3	286	180	2	1136
3	287	705	2	904
3	288	1197	2	952
3	289	1123	1	1040
3	290	627	2	1456
3	291	453	3	1088
3	292	1115	2	1376
3	293	858	1	872
3	294	1154	2	1313
3	295	124	2	2487
3	296	415	3	1465
3	297	563	3	2288
3	298	1177	2	1128
3	299	1373	1	1208
3	300	1195	1	991
3	301	511	2	1974
3	302	505	2	1052
3	303	761	3	1110
3	304	230	2	1627
3	305	1383	2	2133
3	306	318	2	1487
3	307	214	3	1419
3	308	1376	3	1246
3	309	170	3	1827
3	310	794	4	676
3	311	740	4	884
3	312	748	4	1469
3	313	689	4	1236
3	314	226	4	2130
3	315	101	4	918
3	316	243	4	1337
3	317	225	4	3287
3	318	1040	2	1736
3	319	416	3	1584
3	320	76	2	2504
3	321	686	2	2057
3	322	363	1	1456
3	323	1111	1	1770
3	324	586	1	1142
3	325	774	3	2357
3	326	11	2	1676
3	327	62	2	1231
3	328	70	2	4959
3	329	84	2	4809
3	330	992	2	1447
3	331	337	2	951
3	332	555	3	2012
3	333	406	2	3855
3	334	839	2	2306
3	335	773	1	1145
3	336	111	1	748
3	337	1272	1	3346
3	338	245	2	1534
3	339	276	1	1407
3	340	1347	2	2225
3	341	634	2	1592
3	342	1227	3	4188
3	343	273	2	4190
3	344	952	3	2587
3	345	842	2	891
3	346	295	1	1312
3	347	250	2	2285
3	348	1021	1	1424
3	349	82	3	8336
3	350	967	2	33
3	351	462	2	2920
3	352	126	1	1032
3	353	484	2	1122
3	354	203	3	2393
3	355	442	2	4138
3	356	1104	3	1372
3	357	1213	3	1032
3	358	79	3	4432
3	359	1074	2	3667
3	360	479	3	1335
3	361	161	2	909
3	362	136	3	2290
3	363	754	1	1119
3	364	54	1	3045
3	365	476	2	1195
3	366	147	2	1050
3	367	1012	2	2779
3	368	602	2	3639
3	369	1363	2	1138
3	370	577	2	4283
3	371	1269	2	1279
3	372	469	3	1245
3	373	1196	2	3742
3	374	495	2	2848
3	375	792	2	4177
3	376	566	2	2878
3	377	370	4	1107
3	378	934	4	705
3	379	220	3	1325
3	380	88	2	3319
3	381	1025	3	3169
3	382	241	2	1385
3	383	216	3	4399
3	384	621	2	2061
3	385	854	4	979
3	386	787	3	1017
3	387	1397	4	876
3	388	1066	4	945
3	389	1032	2	2277
3	390	387	2	3180
3	391	64	2	3803
3	392	638	3	1422
3	393	803	3	1396
3	394	1199	3	1603
3	395	869	3	17308
3	396	1313	3	2275
3	397	805	4	1422
3	398	1117	4	1239
3	399	1207	2	1112
3	400	366	2	1568
3	401	202	2	13383
3	402	1352	2	1451
3	403	1279	3	897
3	404	691	2	925
3	405	683	2	1000
3	406	1382	2	3185
3	407	256	3	1104
3	408	903	2	1429
3	409	113	2	1359
3	410	190	2	6669
3	411	738	2	1552
3	412	166	2	9939
3	413	311	2	905
3	414	614	3	1235
3	415	340	3	3372
3	416	456	2	1160
3	417	381	2	962
3	418	395	2	1852
3	419	206	1	887
3	420	810	1	865
3	421	677	2	1791
3	422	605	1	955
3	423	207	2	1843
3	424	923	2	6548
3	425	1075	2	6922
3	426	246	2	1327
3	427	1087	2	1224
3	428	148	2	1195
3	429	315	2	1917
3	430	1365	1	1080
3	431	1082	1	712
3	432	302	2	1679
3	433	978	2	1349
3	434	537	2	1173
3	435	209	2	1797
3	436	784	3	2057
3	437	1390	3	1033
3	438	1234	3	4117
3	439	25	2	1417
3	440	491	3	1019
3	441	1146	2	4200
3	442	373	2	2253
3	443	412	3	1484
3	444	953	3	1079
3	445	314	2	3470
3	446	520	2	873
3	447	1078	1	1208
3	448	645	3	3134
3	449	835	2	1069
3	450	933	2	1148
3	451	799	2	1286
3	452	769	3	910
3	453	924	2	4150
3	454	1114	2	1109
3	455	607	2	1956
3	456	827	2	1367
3	457	570	2	2533
3	458	275	2	1382
3	459	1385	2	3294
3	460	16	1	1488
3	461	517	1	786
3	462	130	2	1107
3	463	431	3	1217
3	464	648	2	1240
3	465	548	1	1267
3	466	1089	2	1513
3	467	283	2	2464
3	468	1252	3	1008
3	469	499	3	1133
3	470	1008	3	2015
3	471	1327	4	996
3	472	150	2	1279
3	473	1345	2	5322
3	474	405	4	1636
3	475	968	2	1556
3	476	1173	4	7271
3	477	840	2	1082
3	478	528	3	882
3	479	875	1	1559
3	480	1343	2	8606
3	481	728	2	1125
3	482	312	2	1687
3	483	1161	2	3105
3	484	127	2	2140
3	485	514	2	1659
3	486	824	2	780
3	487	1086	3	2866
3	488	536	2	1175
3	489	678	4	1465
3	490	34	3	6505
3	491	269	2	1472
3	492	355	1	1988
3	493	248	1	837
3	494	1264	2	966
3	495	1153	2	1602
3	496	1214	2	1175
3	497	624	1	1040
3	498	281	1	2311
3	499	622	2	1479
3	500	1291	1	907
3	501	741	2	3560
3	502	208	1	924
3	503	896	2	775
3	504	12	1	749
3	505	588	1	657
3	506	1034	2	1590
3	507	668	1	820
3	508	77	2	1929
3	509	1001	2	1695
3	510	646	1	594
3	511	1006	1	1568
3	512	94	3	1065
3	513	882	1	1440
3	514	642	4	919
3	515	172	4	1054
3	516	1031	4	738
3	517	1212	2	1342
3	518	797	2	1216
3	519	1103	2	3439
3	520	912	4	1671
3	521	1326	2	1406
3	522	1198	3	1455
3	523	473	1	1125
3	524	1122	3	2219
3	525	994	4	962
3	526	806	2	2382
3	527	4	3	4321
3	528	13	4	844
3	529	1159	4	796
3	530	1346	4	592
3	531	1380	4	1440
3	532	656	3	1687
3	533	1024	4	889
3	534	1092	3	952
3	535	1354	4	1712
3	536	509	4	707
3	537	457	4	1091
3	538	391	2	1646
3	539	1116	2	1475
3	540	379	4	1706
3	541	922	2	10089
3	542	1047	2	4653
3	543	1287	2	5936
3	544	629	3	3305
3	545	954	2	1436
3	546	117	2	1141
3	547	1011	1	1010
3	548	386	1	1085
3	549	724	4	1702
3	550	1170	3	3485
3	551	1259	2	1312
3	552	1315	4	878
3	553	1135	4	832
3	554	289	3	1296
3	555	490	2	1100
3	556	1069	3	1119
3	557	1094	3	1614
3	558	329	3	7535
3	559	545	3	2931
3	560	532	2	766
3	561	1172	1	1340
3	562	863	1	1014
3	563	901	2	2534
3	564	411	4	995
3	565	736	2	2181
3	566	197	2	2853
3	567	867	1	1104
3	568	949	1	786
3	569	921	1	972
3	570	688	1	1152
3	571	701	1	1388
3	572	1101	2	1388
3	573	1209	1	1710
3	574	427	3	3066
3	575	1375	2	4440
3	576	640	1	1878
3	577	109	2	1650
3	578	224	1	1033
3	579	284	3	1146
3	580	5	2	1617
3	581	417	4	1060
3	582	743	1	2574
3	583	958	3	2627
3	584	385	4	857
3	585	708	2	1088
3	586	837	4	919
3	587	1215	4	1028
3	588	610	4	725
3	589	1386	3	1920
3	590	522	4	1293
3	591	1351	2	1859
3	592	348	4	873
3	593	662	4	1186
3	594	1152	4	781
3	595	699	4	1343
3	596	571	2	4482
3	597	191	1	1325
3	598	192	2	1436
3	599	40	3	897
3	600	891	3	3935
3	601	204	3	3087
3	602	1202	2	1062
3	603	702	4	779
3	604	252	2	27217
3	605	983	2	1163
3	606	902	2	1405
3	607	1325	2	1067
3	608	675	2	9677
3	609	979	1	1394
3	610	1107	1	787
3	611	795	2	4037
3	612	943	3	1423
3	613	158	4	992
3	614	254	2	1171
3	615	65	2	1077
3	616	258	1	753
3	617	988	1	920
3	618	964	1	720
3	619	554	1	1843
3	620	1160	2	4469
3	621	118	2	6489
3	622	1270	2	2237
3	623	35	4	5333
3	624	811	3	1101
3	625	856	2	1125
3	626	812	3	1625
3	627	534	2	1717
3	628	525	2	1173
3	629	154	2	1588
3	630	1027	4	950
3	631	587	2	1360
3	632	485	3	7019
3	633	1310	2	1141
3	634	1314	2	1577
3	635	157	2	1094
3	636	857	2	2866
3	637	149	1	1240
3	638	446	3	2284
3	639	468	2	876
3	640	823	3	1346
3	641	559	3	1022
3	642	1187	4	1273
3	643	585	2	916
3	644	1026	2	2004
3	645	239	3	1744
3	646	633	2	996
3	647	1174	2	916
3	648	789	3	1066
3	649	52	3	1971
3	650	72	2	872
3	651	142	3	1825
3	652	277	4	1026
3	653	445	4	736
3	654	1268	4	792
3	655	1237	3	1305
3	656	1150	3	5656
3	657	1312	3	1166
3	658	1377	2	946
3	659	466	3	7467
3	660	418	4	1187
3	661	61	3	3227
3	662	350	2	1200
3	663	1133	3	3768
3	664	852	3	1919
3	665	193	2	1074
3	666	346	1	781
3	667	2	2	2222
3	668	641	1	850
3	669	1184	3	1507
3	670	1126	1	1258
3	671	801	1	1598
3	672	426	3	4812
3	673	332	2	1205
3	674	1158	2	4362
3	675	1294	2	1028
3	676	114	3	1895
3	677	747	2	2388
3	678	8	2	3209
3	679	393	1	974
3	680	1322	1	696
3	681	365	4	946
3	682	1339	4	1111
3	683	785	3	1178
3	684	1131	2	1293
3	685	1083	2	1222
3	686	849	2	4888
3	687	424	2	1521
3	688	376	2	1058
3	689	597	2	1191
3	690	1105	3	2537
3	691	421	1	887
3	692	331	2	1984
3	693	1353	2	1305
3	694	1053	4	1121
3	695	1157	2	1074
3	696	637	4	1165
3	697	1295	1	1358
3	698	907	2	1280
3	699	1296	2	2828
3	700	420	2	9743
3	701	325	3	13698
3	702	1370	2	1272
3	703	57	1	745
3	704	573	2	961
3	705	1349	3	1052
3	706	1244	2	1282
3	707	1236	2	1223
3	708	369	1	839
3	709	267	2	911
3	710	1201	2	945
3	711	131	2	912
3	712	449	2	784
3	713	333	2	1448
3	714	1141	3	1276
3	715	744	2	1693
3	716	1230	1	866
3	717	596	1	966
3	718	999	2	3288
3	719	1072	2	813
3	720	695	1	1476
3	721	508	1	990
3	722	918	2	1546
3	723	303	2	1127
3	724	1100	2	2001
3	725	169	1	976
3	726	1029	1	1468
3	727	261	1	716
3	728	92	2	1109
3	729	742	2	1108
3	730	1054	2	49526
3	731	843	1	726
3	732	1400	3	1131
3	733	513	2	1852
3	734	1358	2	1456
3	735	205	2	12369
3	736	20	3	1300
3	737	1175	2	1269
3	738	55	2	775
3	739	729	2	878
3	740	836	2	978
3	741	553	2	1119
3	742	268	3	1118
3	743	758	2	1315
3	744	770	3	2092
3	745	1254	4	974
3	746	666	2	879
3	747	334	1	904
3	748	599	2	1512
3	749	1277	4	872
3	750	221	4	902
3	751	1316	4	674
3	752	430	4	766
3	753	931	3	1666
3	754	1258	2	1008
3	755	465	4	1532
3	756	454	2	1495
3	757	320	1	806
3	758	993	2	1952
3	759	779	2	910
3	760	368	3	2733
3	761	1096	2	987
3	762	1298	1	762
3	763	619	1	1936
3	764	719	2	1371
3	765	364	2	1350
3	766	832	1	963
3	767	977	2	2187
3	768	434	2	1787
3	769	455	1	1523
3	770	1344	2	1564
3	771	961	2	879
3	772	360	1	815
3	773	670	2	1054
3	774	1391	3	1605
3	775	304	2	719
3	776	33	2	1597
3	777	403	1	795
3	778	90	2	855
3	779	1055	4	986
3	780	356	3	784
3	781	895	2	1681
3	782	134	4	875
3	783	85	2	828
3	784	1169	1	2288
3	785	74	2	1987
3	786	115	3	1853
3	787	1292	2	890
3	788	1044	1	841
3	789	93	2	1363
3	790	496	4	763
3	791	790	4	656
3	792	257	4	796
3	793	883	3	1274
3	794	344	4	798
3	795	1320	3	1212
3	796	976	3	1495
3	797	1350	3	1673
3	798	989	4	581
3	799	704	3	970
3	800	772	2	948
3	801	306	3	3255
3	802	459	3	1041
3	803	402	3	1615
3	804	229	4	816
3	805	425	4	771
3	806	501	4	651
3	807	888	4	689
3	808	660	3	1154
3	809	66	2	3867
3	810	1067	3	1486
3	811	183	3	1088
3	812	1099	2	1376
3	813	236	2	1192
3	814	807	3	944
3	815	1013	4	1188
3	816	432	3	852
3	817	486	3	2016
3	818	1387	3	889
3	819	467	2	822
3	820	818	2	3666
3	821	59	4	1016
3	822	1265	3	1317
3	823	1357	2	2679
3	824	437	2	5753
3	825	1178	2	1053
3	826	1139	1	1235
3	827	60	2	803
3	828	1399	3	1049
3	829	1098	3	1016
3	830	1181	2	918
3	831	352	2	1130
3	832	855	3	1145
3	833	1077	4	4474
3	834	906	3	2478
3	835	297	2	1368
3	836	1369	2	1036
3	837	1148	1	612
3	838	684	2	1039
3	839	301	2	1081
3	840	947	3	960
3	841	199	2	983
3	842	372	3	1164
3	843	512	2	961
3	844	116	2	919
3	845	299	2	2322
3	846	482	1	908
3	847	945	1	691
3	848	825	1	828
3	849	1112	1	949
3	850	644	1	1066
3	851	308	1	1151
3	852	963	1	1255
3	853	167	1	894
3	854	375	2	2050
3	855	98	2	1697
3	856	43	1	775
3	857	546	2	1228
3	858	955	1	10547
3	859	1188	1	1164
3	860	909	1	1096
3	861	470	1	1146
3	862	1321	3	1200
3	863	135	3	2072
3	864	578	2	997
3	865	672	1	1027
3	866	181	1	808
3	867	1179	2	1352
3	868	853	1	976
3	869	904	1	1256
3	870	1224	1	1117
3	871	422	2	2801
3	872	567	1	579
3	873	198	2	1352
3	874	182	2	1642
3	875	685	2	823
3	876	452	1	775
3	877	1211	2	1757
3	878	765	2	771
3	879	749	2	1042
3	880	626	1	1066
3	881	1049	2	4773
3	882	270	3	7120
3	883	864	3	1082
3	884	122	2	1071
3	885	138	2	901
3	886	764	2	1666
3	887	321	3	12059
3	888	935	3	1427
3	889	780	3	1054
3	890	1004	2	70
3	891	669	2	1473
3	892	1374	2	12112
3	893	1285	2	832
3	894	480	2	2609
3	895	915	2	860
3	896	294	2	3274
3	897	1064	2	874
3	898	1257	3	1186
3	899	574	2	733
3	900	335	1	985
3	901	990	2	1133
3	902	838	2	872
3	903	1331	1	1463
3	904	1003	2	17070
3	905	196	1	918
3	906	1056	2	1233
3	907	733	1	1113
3	908	69	1	900
3	909	1290	1	739
3	910	63	2	3337
3	911	152	2	1934
3	912	22	2	2658
3	913	279	2	1968
3	914	46	1	1139
3	915	768	3	1110
3	916	1038	2	1068
3	917	461	1	744
3	918	359	1	678
3	919	228	2	1555
3	920	885	1	3491
3	921	450	2	4392
3	922	776	3	1115
3	923	710	1	1029
3	924	717	2	824
3	925	887	2	886
3	926	721	2	868
3	927	354	1	632
3	928	535	2	998
3	929	448	4	968
3	930	745	3	987
3	931	133	1	1173
3	932	816	1	1193
3	933	1052	2	1325
3	934	219	2	942
3	935	1299	1	741
3	936	879	1	964
3	937	1361	1	1140
3	938	564	1	761
3	939	293	1	1001
3	940	833	3	8155
3	941	1219	3	5300
3	942	144	3	1331
3	943	56	2	1817
3	944	438	1	1058
3	945	162	1	2475
3	946	1065	1	991
3	947	341	1	816
3	948	673	1	1828
3	949	96	1	1213
3	950	813	2	1185
3	951	1058	2	803
3	952	713	1	1612
3	953	1030	1	956
3	954	919	3	1112
3	955	143	2	24546
3	956	1005	2	1215
3	957	848	2	1301
3	958	694	2	1230
3	959	100	3	1019
3	960	798	1	871
3	961	1238	1	769
3	962	1134	3	1144
3	963	23	1	898
3	964	917	3	869
3	965	497	2	1873
3	966	215	3	1520
3	967	305	4	1127
3	968	1280	2	1203
3	969	382	2	2743
3	970	612	4	1107
3	971	347	4	636
3	972	936	4	1073
3	973	374	3	1887
3	974	572	2	1170
3	975	1340	2	927
3	976	435	2	1328
3	977	872	1	728
3	978	274	2	920
3	979	1151	4	945
3	980	1182	1	1327
3	981	996	1	871
3	982	697	1	633
3	983	1208	3	1139
3	984	576	2	836
3	985	1009	2	1140
3	986	681	4	924
3	987	752	4	826
3	988	735	4	768
3	989	178	3	3190
3	990	15	2	847
3	991	800	1	872
3	992	1060	4	883
3	993	1015	1	1536
3	994	104	4	1179
3	995	319	3	1693
3	996	1048	3	1170
3	997	259	3	945
3	998	1306	2	1106
3	999	700	4	1156
3	1000	266	4	772
3	1001	503	3	1472
3	1002	914	2	955
3	1003	1147	2	2258
3	1004	556	2	763
3	1005	757	2	2155
3	1006	611	3	745
3	1007	309	2	1760
3	1008	727	1	1212
3	1009	1137	3	1270
3	1010	357	2	1083
3	1011	590	4	1499
3	1012	1073	4	1208
3	1013	186	4	736
3	1014	377	2	4603
3	1015	1191	2	1332
3	1016	693	2	1110
3	1017	1061	2	1036
3	1018	725	2	1408
3	1019	433	2	6024
3	1020	1395	1	1275
3	1021	751	2	1308
3	1022	777	1	2397
3	1023	680	1	2604
3	1024	342	2	2379
3	1025	1282	2	2085
3	1026	766	1	1998
3	1027	463	2	3536
3	1028	1341	2	850
3	1029	1297	2	993
3	1030	930	2	1126
3	1031	1106	2	1210
3	1032	788	1	888
3	1033	163	1	1712
3	1034	821	2	1596
3	1035	1218	2	956
3	1036	925	1	756
3	1037	527	1	587
3	1038	615	3	1517
3	1039	1286	1	953
3	1040	1364	2	1100
3	1041	351	1	1785
3	1042	820	4	1125
3	1043	1271	4	841
3	1044	1260	2	1067
3	1045	26	4	868
3	1046	477	2	968
3	1047	37	4	706
3	1048	679	2	944
3	1049	67	2	1016
3	1050	323	4	1037
3	1051	1028	2	2547
3	1052	962	2	1759
3	1053	651	2	1643
3	1054	1319	3	1031
3	1055	655	3	3544
3	1056	886	4	1116
3	1057	991	3	1468
3	1058	361	2	1544
3	1059	489	1	1156
3	1060	1190	4	1045
3	1061	524	3	1640
3	1062	1204	1	1088
3	1063	722	2	2632
3	1064	1020	1	872
3	1065	6	2	792
3	1066	690	1	862
3	1067	565	2	887
3	1068	552	1	1629
3	1069	498	2	1524
3	1070	507	4	1076
3	1071	671	2	4659
3	1072	296	4	838
3	1073	929	1	987
3	1074	1283	1	932
3	1075	1379	4	982
3	1076	521	3	1478
3	1077	1273	4	701
3	1078	1289	3	1470
3	1079	441	4	1133
3	1080	676	4	807
3	1081	407	4	1146
3	1082	558	3	885
3	1083	1311	4	1554
3	1084	81	4	1164
3	1085	18	4	876
3	1086	894	3	1888
3	1087	300	4	753
3	1088	928	2	10604
3	1089	786	3	880
3	1090	30	3	792
3	1091	898	4	616
3	1092	1185	2	701
3	1093	865	2	1235
3	1094	783	2	2225
3	1095	1231	2	1083
3	1096	234	2	1197
3	1097	544	1	1055
3	1098	51	1	720
3	1099	439	3	1456
3	1100	1381	3	4264
3	1101	557	3	1252
3	1102	287	3	848
3	1103	1	2	1144
3	1104	1281	4	873
3	1105	1149	4	780
3	1106	1235	3	993
3	1107	1010	1	1010
3	1108	971	2	1101
3	1109	1140	4	802
3	1110	336	2	2154
3	1111	262	3	1534
3	1112	941	2	810
3	1113	819	1	1370
3	1114	140	4	917
3	1115	1221	3	2161
3	1116	237	2	1392
3	1117	753	1	736
3	1118	1225	4	792
3	1119	1042	1	1067
3	1120	1360	4	748
3	1121	1217	2	2602
3	1122	771	1	800
3	1123	1125	2	2992
3	1124	211	3	2049
3	1125	814	2	2384
3	1126	893	2	1328
3	1127	1118	2	907
3	1128	493	2	913
3	1129	1368	2	1793
3	1130	1243	2	866
3	1131	868	4	132
3	1132	139	1	1649
3	1133	916	3	1772
3	1134	1266	1	800
3	1135	1014	1	824
3	1136	271	1	1205
3	1137	862	2	1555
3	1138	877	2	2888
3	1139	408	2	1034
3	1140	950	3	3322
3	1141	870	4	1285
3	1142	253	4	1120
3	1143	483	4	1256
3	1144	603	4	1177
3	1145	156	4	1240
3	1146	1337	1	1358
3	1147	474	3	3001
3	1148	1338	4	787
3	1149	251	2	1204
3	1150	200	4	913
3	1151	174	1	1192
3	1152	592	1	971
3	1153	746	1	996
3	1154	38	1	840
3	1155	562	2	1707
3	1156	834	2	1031
3	1157	515	3	1215
3	1158	1275	2	1113
3	1159	500	3	1223
3	1160	1251	2	1299
3	1161	388	3	2096
3	1162	763	4	834
3	1163	188	4	712
3	1164	68	4	753
3	1165	782	4	1786
3	1166	401	4	1145
3	1167	1090	2	5021
3	1168	1210	3	1495
3	1169	494	3	817
3	1170	1317	2	1680
3	1171	846	3	853
3	1172	212	3	1799
3	1173	937	4	1104
3	1174	1109	4	675
3	1175	128	3	1703
3	1176	781	4	653
3	1177	1336	2	4081
3	1178	105	3	2361
3	1179	353	3	1574
3	1180	345	3	2321
3	1181	1121	4	1200
3	1182	1156	2	729
3	1183	987	1	632
3	1184	1165	3	1335
3	1185	78	3	1149
3	1186	793	1	1189
3	1187	791	2	4109
3	1188	159	3	1482
3	1189	667	1	841
3	1190	24	1	689
3	1191	394	3	961
3	1192	1093	4	655
3	1193	389	2	1056
3	1194	707	3	3005
3	1195	86	4	821
3	1196	974	3	718
3	1197	50	4	634
3	1198	1022	4	522
3	1199	9	3	1380
3	1200	404	3	3140
3	1201	905	3	989
3	1202	649	2	858
3	1203	1323	2	1038
3	1204	658	1	726
3	1205	1220	1	969
3	1206	108	4	1102
3	1207	518	3	1130
3	1208	233	2	900
3	1209	687	3	1812
3	1210	1063	4	855
3	1211	538	3	904
3	1212	1080	4	993
3	1213	659	4	1198
3	1214	609	1	865
3	1215	49	2	3371
3	1216	569	2	4830
3	1217	1164	1	737
3	1218	876	1	805
3	1219	41	1	647
3	1220	1366	1	710
3	1221	1205	3	1116
3	1222	1059	2	3496
3	1223	1119	2	5203
3	1224	44	3	968
3	1225	1018	2	1385
3	1226	1183	2	2303
3	1227	1308	2	3712
3	1228	429	3	808
3	1229	639	2	891
3	1230	410	3	925
3	1231	242	1	847
3	1232	529	1	887
3	1233	601	2	2311
3	1234	957	1	1769
3	1235	189	2	1247
3	1236	874	2	1804
3	1237	87	1	1060
3	1238	866	2	6341
3	1239	635	2	1341
3	1240	899	1	579
3	1241	28	1	796
3	1242	1396	1	791
3	1243	1162	2	1109
3	1244	959	1	692
3	1245	175	1	977
3	1246	451	1	843
3	1247	1127	1	580
3	1248	1263	1	656
3	1249	589	2	1619
3	1250	213	3	1345
3	1251	1085	2	2418
3	1252	595	2	5708
3	1253	1194	1	896
3	1254	664	1	1015
3	1255	1248	2	1116
3	1256	317	2	1041
3	1257	164	1	704
3	1258	815	1	916
3	1259	756	1	754
3	1260	145	1	865
3	1261	423	1	984
3	1262	975	2	833
3	1263	723	1	1437
3	1264	398	1	795
3	1265	910	3	1307
3	1266	362	2	892
3	1267	201	2	2035
3	1268	920	1	822
3	1269	516	4	936
3	1270	1324	4	655
3	1271	447	3	1473
3	1272	119	3	1329
3	1273	1180	3	834
3	1274	1229	2	1509
3	1275	1035	1	1299
3	1276	861	1	947
3	1277	628	1	952
3	1278	1239	1	1269
3	1279	591	2	1470
3	1280	881	3	2184
3	1281	575	4	828
3	1282	14	1	2093
3	1283	1171	3	1159
3	1284	1206	3	2326
3	1285	616	2	1712
3	1286	272	2	1223
3	1287	1392	3	946
3	1288	71	4	693
3	1289	1303	3	1240
3	1290	1091	3	1320
3	1291	471	2	904
3	1292	458	3	4361
3	1293	531	4	2739
3	1294	980	3	1411
3	1295	378	3	1414
3	1296	547	1	929
3	1297	89	1	629
3	1298	322	1	899
3	1299	796	2	1644
3	1300	1095	3	1899
3	1301	1288	3	2026
3	1302	1002	2	1293
3	1303	121	4	883
3	1304	286	4	776
3	1305	1255	3	1410
3	1306	326	2	1225
3	1307	440	4	796
3	1308	1081	3	5310
3	1309	1057	2	1552
3	1310	951	1	652
3	1311	1232	1	733
3	1312	579	3	995
3	1313	1163	2	1250
3	1314	828	4	898
3	1315	1262	3	2160
3	1316	1007	2	1440
3	1317	1267	2	848
3	1318	1132	2	842
3	1319	654	2	1080
3	1320	10	2	883
3	1321	173	3	1643
3	1322	767	2	1432
3	1323	1155	4	2547
3	1324	481	2	1065
3	1325	176	2	5130
3	1326	1223	3	1258
3	1327	631	2	1260
3	1328	734	1	629
3	1329	1186	4	910
3	1330	32	3	1685
3	1331	636	3	1083
3	1332	844	2	1457
3	1333	674	2	1833
3	1334	973	1	935
3	1335	986	1	731
3	1336	543	1	788
3	1337	682	1	671
3	1338	539	1	1030
3	1339	396	1	2080
3	1340	1019	1	634
3	1341	731	2	1453
3	1342	1240	4	1043
3	1343	39	3	2902
3	1344	873	3	1783
3	1345	141	2	942
3	1346	73	3	1098
3	1347	1216	2	2376
3	1348	1359	1	1200
3	1349	946	3	2535
3	1350	1043	3	1290
3	1351	328	3	1304
3	1352	110	4	979
3	1353	282	4	800
3	1354	661	3	1298
3	1355	580	2	915
3	1356	443	3	1704
3	1357	1071	2	1961
3	1358	625	3	1112
3	1359	1384	2	3186
3	1360	1062	3	2547
3	1361	1041	3	1926
3	1362	502	3	1164
3	1363	1304	3	850
3	1364	997	2	920
3	1365	1039	3	2951
3	1366	231	3	1406
3	1367	1108	4	764
3	1368	316	4	688
3	1369	526	2	1175
3	1370	542	1	921
3	1371	244	2	1001
3	1372	1372	3	1239
3	1373	831	4	872
3	1374	400	2	1266
3	1375	712	1	1977
3	1376	530	2	4285
3	1377	132	2	1144
3	1378	550	2	1811
3	1379	1102	2	2070
3	1380	102	1	928
3	1381	965	2	3293
3	1382	397	2	1104
3	1383	1143	2	1075
3	1384	383	1	704
3	1385	1046	2	1786
3	1386	1036	1	683
3	1387	123	2	909
3	1388	1334	2	1478
3	1389	775	2	1527
3	1390	613	1	650
3	1391	665	2	984
3	1392	1226	1	1104
3	1393	19	3	1362
3	1394	1307	2	1365
3	1395	153	2	2601
3	1396	696	2	2296
3	1397	17	3	1392
3	1398	892	4	716
3	1399	623	4	665
3	1400	330	3	1181
